success,trial_type,trial_index,time_elapsed,internal_node_id,STUDY_ID,PROLIFIC_PID,SESSION_ID,FP,bonus,nickname,rt,url,view_history,stimulus,key_press,shape_array,effect,correct_response,test_part,trial_part,correct,responses,trial_name
1.0,fullscreen,0,3987,0.0-0.0,5f10222e37592b0f5c021e29,5ed519d5f242dd06a51883e7,5f1062793566652f07ac5bc5,False,0.23,fergy76,,,,,,,,,,,,,
,external-html,1,21391,0.0-1.0,5f10222e37592b0f5c021e29,5ed519d5f242dd06a51883e7,5f1062793566652f07ac5bc5,False,0.23,fergy76,17295.7,nickname.html,,,,,,,,,,,
,instructions,2,68883,0.0-2.0,5f10222e37592b0f5c021e29,5ed519d5f242dd06a51883e7,5f1062793566652f07ac5bc5,False,0.23,fergy76,47489.5,,"[{""page_index"":0,""viewing_time"":12532.399999999997},{""page_index"":1,""viewing_time"":10467.600000000005},{""page_index"":2,""viewing_time"":14978.599999999998},{""page_index"":3,""viewing_time"":7778.5999999999985},{""page_index"":4,""viewing_time"":1732}]",,,,,,,,,,
,html-keyboard-response,3,69402,0.0-3.0-0.0-0.0,5f10222e37592b0f5c021e29,5ed519d5f242dd06a51883e7,5f1062793566652f07ac5bc5,False,0.23,fergy76,,,,"<h2>Will the cat appear after this screen?</h2><div class=""J_key""><strong>Yes</strong> <br> (press J)</div><div class=""F_key""><strong>No</strong> <br> (press F)</div>",,['stimuli/diamond.png'],0.0,f,practice,prepare,,,
,html-keyboard-response,4,70723,0.0-3.0-0.0-1.0,5f10222e37592b0f5c021e29,5ed519d5f242dd06a51883e7,5f1062793566652f07ac5bc5,False,0.23,fergy76,1317.0999999999913,,,"<h2>Will the cat appear after this screen?</h2><div class=""J_key""><strong>Yes</strong> <br> (press J)</div><div class=""F_key""><strong>No</strong> <br> (press F)</div><div class=""central_stim""><img src=""stimuli/diamond.png"" width=""30%"" style=""padding:2vmin""></div>",74.0,['stimuli/diamond.png'],0.0,f,practice,main,0.0,,
,html-keyboard-response,5,72734,0.0-3.0-0.0-2.0,5f10222e37592b0f5c021e29,5ed519d5f242dd06a51883e7,5f1062793566652f07ac5bc5,False,0.23,fergy76,,,,"<div class=""central_stim""></div>",,['stimuli/diamond.png'],0.0,f,practice,feedback,,,
,html-keyboard-response,6,73263,0.0-3.0-0.0-0.1,5f10222e37592b0f5c021e29,5ed519d5f242dd06a51883e7,5f1062793566652f07ac5bc5,False,0.23,fergy76,,,,"<h2>Will the cat appear after this screen?</h2><div class=""J_key""><strong>Yes</strong> <br> (press J)</div><div class=""F_key""><strong>No</strong> <br> (press F)</div>",,['stimuli/clover.png'],1.0,j,practice,prepare,,,
,html-keyboard-response,7,75003,0.0-3.0-0.0-1.1,5f10222e37592b0f5c021e29,5ed519d5f242dd06a51883e7,5f1062793566652f07ac5bc5,False,0.23,fergy76,1737.4000000000087,,,"<h2>Will the cat appear after this screen?</h2><div class=""J_key""><strong>Yes</strong> <br> (press J)</div><div class=""F_key""><strong>No</strong> <br> (press F)</div><div class=""central_stim""><img src=""stimuli/clover.png"" width=""30%"" style=""padding:2vmin""></div>",74.0,['stimuli/clover.png'],1.0,j,practice,main,1.0,,
,html-keyboard-response,8,77028,0.0-3.0-0.0-2.1,5f10222e37592b0f5c021e29,5ed519d5f242dd06a51883e7,5f1062793566652f07ac5bc5,False,0.23,fergy76,,,,"<div class=""central_stim""><img src=""stimuli/cat.png"" class=""cat""></div>",,['stimuli/clover.png'],1.0,j,practice,feedback,,,
,html-keyboard-response,9,77544,0.0-3.0-0.0-0.2,5f10222e37592b0f5c021e29,5ed519d5f242dd06a51883e7,5f1062793566652f07ac5bc5,False,0.23,fergy76,,,,"<h2>Will the cat appear after this screen?</h2><div class=""J_key""><strong>Yes</strong> <br> (press J)</div><div class=""F_key""><strong>No</strong> <br> (press F)</div>",,['stimuli/clover.png'],1.0,j,practice,prepare,,,
,html-keyboard-response,10,78520,0.0-3.0-0.0-1.2,5f10222e37592b0f5c021e29,5ed519d5f242dd06a51883e7,5f1062793566652f07ac5bc5,False,0.23,fergy76,973.1000000000058,,,"<h2>Will the cat appear after this screen?</h2><div class=""J_key""><strong>Yes</strong> <br> (press J)</div><div class=""F_key""><strong>No</strong> <br> (press F)</div><div class=""central_stim""><img src=""stimuli/clover.png"" width=""30%"" style=""padding:2vmin""></div>",74.0,['stimuli/clover.png'],1.0,j,practice,main,1.0,,
,html-keyboard-response,11,80537,0.0-3.0-0.0-2.2,5f10222e37592b0f5c021e29,5ed519d5f242dd06a51883e7,5f1062793566652f07ac5bc5,False,0.23,fergy76,,,,"<div class=""central_stim""><img src=""stimuli/cat.png"" class=""cat""></div>",,['stimuli/clover.png'],1.0,j,practice,feedback,,,
,html-keyboard-response,12,81070,0.0-3.0-0.0-0.3,5f10222e37592b0f5c021e29,5ed519d5f242dd06a51883e7,5f1062793566652f07ac5bc5,False,0.23,fergy76,,,,"<h2>Will the cat appear after this screen?</h2><div class=""J_key""><strong>Yes</strong> <br> (press J)</div><div class=""F_key""><strong>No</strong> <br> (press F)</div>",,['stimuli/diamond.png'],0.0,f,practice,prepare,,,
,html-keyboard-response,13,82047,0.0-3.0-0.0-1.3,5f10222e37592b0f5c021e29,5ed519d5f242dd06a51883e7,5f1062793566652f07ac5bc5,False,0.23,fergy76,974.8000000000029,,,"<h2>Will the cat appear after this screen?</h2><div class=""J_key""><strong>Yes</strong> <br> (press J)</div><div class=""F_key""><strong>No</strong> <br> (press F)</div><div class=""central_stim""><img src=""stimuli/diamond.png"" width=""30%"" style=""padding:2vmin""></div>",70.0,['stimuli/diamond.png'],0.0,f,practice,main,1.0,,
,html-keyboard-response,14,84068,0.0-3.0-0.0-2.3,5f10222e37592b0f5c021e29,5ed519d5f242dd06a51883e7,5f1062793566652f07ac5bc5,False,0.23,fergy76,,,,"<div class=""central_stim""></div>",,['stimuli/diamond.png'],0.0,f,practice,feedback,,,
,html-keyboard-response,15,84587,0.0-3.1-0.1-0.4,5f10222e37592b0f5c021e29,5ed519d5f242dd06a51883e7,5f1062793566652f07ac5bc5,False,0.23,fergy76,,,,"<h2>Will the cat appear after this screen?</h2><div class=""J_key""><strong>Yes</strong> <br> (press J)</div><div class=""F_key""><strong>No</strong> <br> (press F)</div>",,['stimuli/diamond.png'],0.0,f,practice,prepare,,,
,html-keyboard-response,16,85340,0.0-3.1-0.1-1.4,5f10222e37592b0f5c021e29,5ed519d5f242dd06a51883e7,5f1062793566652f07ac5bc5,False,0.23,fergy76,750.8000000000029,,,"<h2>Will the cat appear after this screen?</h2><div class=""J_key""><strong>Yes</strong> <br> (press J)</div><div class=""F_key""><strong>No</strong> <br> (press F)</div><div class=""central_stim""><img src=""stimuli/diamond.png"" width=""30%"" style=""padding:2vmin""></div>",70.0,['stimuli/diamond.png'],0.0,f,practice,main,1.0,,
,html-keyboard-response,17,87352,0.0-3.1-0.1-2.4,5f10222e37592b0f5c021e29,5ed519d5f242dd06a51883e7,5f1062793566652f07ac5bc5,False,0.23,fergy76,,,,"<div class=""central_stim""></div>",,['stimuli/diamond.png'],0.0,f,practice,feedback,,,
,html-keyboard-response,18,87864,0.0-3.1-0.1-0.5,5f10222e37592b0f5c021e29,5ed519d5f242dd06a51883e7,5f1062793566652f07ac5bc5,False,0.23,fergy76,,,,"<h2>Will the cat appear after this screen?</h2><div class=""J_key""><strong>Yes</strong> <br> (press J)</div><div class=""F_key""><strong>No</strong> <br> (press F)</div>",,['stimuli/clover.png'],1.0,j,practice,prepare,,,
,html-keyboard-response,19,88728,0.0-3.1-0.1-1.5,5f10222e37592b0f5c021e29,5ed519d5f242dd06a51883e7,5f1062793566652f07ac5bc5,False,0.23,fergy76,862.0,,,"<h2>Will the cat appear after this screen?</h2><div class=""J_key""><strong>Yes</strong> <br> (press J)</div><div class=""F_key""><strong>No</strong> <br> (press F)</div><div class=""central_stim""><img src=""stimuli/clover.png"" width=""30%"" style=""padding:2vmin""></div>",74.0,['stimuli/clover.png'],1.0,j,practice,main,1.0,,
,html-keyboard-response,20,90740,0.0-3.1-0.1-2.5,5f10222e37592b0f5c021e29,5ed519d5f242dd06a51883e7,5f1062793566652f07ac5bc5,False,0.23,fergy76,,,,"<div class=""central_stim""><img src=""stimuli/cat.png"" class=""cat""></div>",,['stimuli/clover.png'],1.0,j,practice,feedback,,,
,html-keyboard-response,21,91243,0.0-3.1-0.1-0.6,5f10222e37592b0f5c021e29,5ed519d5f242dd06a51883e7,5f1062793566652f07ac5bc5,False,0.23,fergy76,,,,"<h2>Will the cat appear after this screen?</h2><div class=""J_key""><strong>Yes</strong> <br> (press J)</div><div class=""F_key""><strong>No</strong> <br> (press F)</div>",,['stimuli/clover.png'],1.0,j,practice,prepare,,,
,html-keyboard-response,22,92202,0.0-3.1-0.1-1.6,5f10222e37592b0f5c021e29,5ed519d5f242dd06a51883e7,5f1062793566652f07ac5bc5,False,0.23,fergy76,954.5,,,"<h2>Will the cat appear after this screen?</h2><div class=""J_key""><strong>Yes</strong> <br> (press J)</div><div class=""F_key""><strong>No</strong> <br> (press F)</div><div class=""central_stim""><img src=""stimuli/clover.png"" width=""30%"" style=""padding:2vmin""></div>",74.0,['stimuli/clover.png'],1.0,j,practice,main,1.0,,
,html-keyboard-response,23,94226,0.0-3.1-0.1-2.6,5f10222e37592b0f5c021e29,5ed519d5f242dd06a51883e7,5f1062793566652f07ac5bc5,False,0.23,fergy76,,,,"<div class=""central_stim""><img src=""stimuli/cat.png"" class=""cat""></div>",,['stimuli/clover.png'],1.0,j,practice,feedback,,,
,html-keyboard-response,24,94742,0.0-3.1-0.1-0.7,5f10222e37592b0f5c021e29,5ed519d5f242dd06a51883e7,5f1062793566652f07ac5bc5,False,0.23,fergy76,,,,"<h2>Will the cat appear after this screen?</h2><div class=""J_key""><strong>Yes</strong> <br> (press J)</div><div class=""F_key""><strong>No</strong> <br> (press F)</div>",,['stimuli/diamond.png'],0.0,f,practice,prepare,,,
,html-keyboard-response,25,95250,0.0-3.1-0.1-1.7,5f10222e37592b0f5c021e29,5ed519d5f242dd06a51883e7,5f1062793566652f07ac5bc5,False,0.23,fergy76,505.5,,,"<h2>Will the cat appear after this screen?</h2><div class=""J_key""><strong>Yes</strong> <br> (press J)</div><div class=""F_key""><strong>No</strong> <br> (press F)</div><div class=""central_stim""><img src=""stimuli/diamond.png"" width=""30%"" style=""padding:2vmin""></div>",70.0,['stimuli/diamond.png'],0.0,f,practice,main,1.0,,
,html-keyboard-response,26,97279,0.0-3.1-0.1-2.7,5f10222e37592b0f5c021e29,5ed519d5f242dd06a51883e7,5f1062793566652f07ac5bc5,False,0.23,fergy76,,,,"<div class=""central_stim""></div>",,['stimuli/diamond.png'],0.0,f,practice,feedback,,,
,survey-text,27,132172,0.0-4.0,5f10222e37592b0f5c021e29,5ed519d5f242dd06a51883e7,5f1062793566652f07ac5bc5,False,0.23,fergy76,34884.29999999999,,,,,,,,,,,"{""Q0"":""Predict when the picture of a cat will appear, based upon the shape presented to you.""}",
,instructions,28,139421,0.0-5.0,5f10222e37592b0f5c021e29,5ed519d5f242dd06a51883e7,5f1062793566652f07ac5bc5,False,0.23,fergy76,7247.0,,"[{""page_index"":0,""viewing_time"":7246.799999999988}]",,,,,,,,,,
,html-keyboard-response,29,139938,0.0-6.0-0.0,5f10222e37592b0f5c021e29,5ed519d5f242dd06a51883e7,5f1062793566652f07ac5bc5,False,0.23,fergy76,,,,"<h2>Will the cat appear after this screen?</h2><div class=""J_key""><strong>Yes</strong> <br> (press J)</div><div class=""F_key""><strong>No</strong> <br> (press F)</div><p class=""progress""> [1/32]</br>number of points: 0</p>",,"['stimuli/plus.png', 'stimuli/hexagon.png']",1.0,j,test,prepare,,,EF+
,html-keyboard-response,30,141118,0.0-6.0-1.0,5f10222e37592b0f5c021e29,5ed519d5f242dd06a51883e7,5f1062793566652f07ac5bc5,False,0.23,fergy76,1177.6999999999825,,,"<h2>Will the cat appear after this screen?</h2><div class=""J_key""><strong>Yes</strong> <br> (press J)</div><div class=""F_key""><strong>No</strong> <br> (press F)</div><div class=""central_stim""><img src=""stimuli/plus.png"" width=""30%"" style=""padding:2vmin"">	<img src=""stimuli/hexagon.png"" width=""30%"" style=""padding:2vmin""></div><p class=""progress""> [1/32]</br>number of points: 0</p>",70.0,"['stimuli/plus.png', 'stimuli/hexagon.png']",1.0,j,test,main,0.0,,EF+
,html-keyboard-response,31,143133,0.0-6.0-2.0,5f10222e37592b0f5c021e29,5ed519d5f242dd06a51883e7,5f1062793566652f07ac5bc5,False,0.23,fergy76,,,,"<div class=""central_stim""><img src=""stimuli/cat.png"" class=""cat""></div><p class=""progress""> [1/32]</br>number of points: 0</p>",,"['stimuli/plus.png', 'stimuli/hexagon.png']",1.0,j,test,feedback,,,EF+
,html-keyboard-response,32,143653,0.0-6.0-0.1,5f10222e37592b0f5c021e29,5ed519d5f242dd06a51883e7,5f1062793566652f07ac5bc5,False,0.23,fergy76,,,,"<h2>Will the cat appear after this screen?</h2><div class=""J_key""><strong>Yes</strong> <br> (press J)</div><div class=""F_key""><strong>No</strong> <br> (press F)</div><p class=""progress""> [2/32]</br>number of points: 0</p>",,['stimuli/star.png'],1.0,j,test,prepare,,,C+
,html-keyboard-response,33,144391,0.0-6.0-1.1,5f10222e37592b0f5c021e29,5ed519d5f242dd06a51883e7,5f1062793566652f07ac5bc5,False,0.23,fergy76,735.0,,,"<h2>Will the cat appear after this screen?</h2><div class=""J_key""><strong>Yes</strong> <br> (press J)</div><div class=""F_key""><strong>No</strong> <br> (press F)</div><div class=""central_stim""><img src=""stimuli/star.png"" width=""30%"" style=""padding:2vmin""></div><p class=""progress""> [2/32]</br>number of points: 0</p>",74.0,['stimuli/star.png'],1.0,j,test,main,1.0,,C+
,html-keyboard-response,34,146403,0.0-6.0-2.1,5f10222e37592b0f5c021e29,5ed519d5f242dd06a51883e7,5f1062793566652f07ac5bc5,False,0.23,fergy76,,,,"<div class=""central_stim""><img src=""stimuli/cat.png"" class=""cat""></div><p class=""progress""> [2/32]</br>number of points: 1</p>",,['stimuli/star.png'],1.0,j,test,feedback,,,C+
,html-keyboard-response,35,146909,0.0-6.0-0.2,5f10222e37592b0f5c021e29,5ed519d5f242dd06a51883e7,5f1062793566652f07ac5bc5,False,0.23,fergy76,,,,"<h2>Will the cat appear after this screen?</h2><div class=""J_key""><strong>Yes</strong> <br> (press J)</div><div class=""F_key""><strong>No</strong> <br> (press F)</div><p class=""progress""> [3/32]</br>number of points: 1</p>",,"['stimuli/star.png', 'stimuli/circle.png']",0.0,f,test,prepare,,,CD-
,html-keyboard-response,36,148004,0.0-6.0-1.2,5f10222e37592b0f5c021e29,5ed519d5f242dd06a51883e7,5f1062793566652f07ac5bc5,False,0.23,fergy76,1093.2999999999884,,,"<h2>Will the cat appear after this screen?</h2><div class=""J_key""><strong>Yes</strong> <br> (press J)</div><div class=""F_key""><strong>No</strong> <br> (press F)</div><div class=""central_stim""><img src=""stimuli/star.png"" width=""30%"" style=""padding:2vmin"">	<img src=""stimuli/circle.png"" width=""30%"" style=""padding:2vmin""></div><p class=""progress""> [3/32]</br>number of points: 1</p>",70.0,"['stimuli/star.png', 'stimuli/circle.png']",0.0,f,test,main,1.0,,CD-
,html-keyboard-response,37,150023,0.0-6.0-2.2,5f10222e37592b0f5c021e29,5ed519d5f242dd06a51883e7,5f1062793566652f07ac5bc5,False,0.23,fergy76,,,,"<div class=""central_stim""></div><p class=""progress""> [3/32]</br>number of points: 2</p>",,"['stimuli/star.png', 'stimuli/circle.png']",0.0,f,test,feedback,,,CD-
,html-keyboard-response,38,150538,0.0-6.0-0.3,5f10222e37592b0f5c021e29,5ed519d5f242dd06a51883e7,5f1062793566652f07ac5bc5,False,0.23,fergy76,,,,"<h2>Will the cat appear after this screen?</h2><div class=""J_key""><strong>Yes</strong> <br> (press J)</div><div class=""F_key""><strong>No</strong> <br> (press F)</div><p class=""progress""> [4/32]</br>number of points: 2</p>",,['stimuli/O.png'],1.0,j,test,prepare,,,Q-
,html-keyboard-response,39,151775,0.0-6.0-1.3,5f10222e37592b0f5c021e29,5ed519d5f242dd06a51883e7,5f1062793566652f07ac5bc5,False,0.23,fergy76,1233.7999999999884,,,"<h2>Will the cat appear after this screen?</h2><div class=""J_key""><strong>Yes</strong> <br> (press J)</div><div class=""F_key""><strong>No</strong> <br> (press F)</div><div class=""central_stim""><img src=""stimuli/O.png"" width=""30%"" style=""padding:2vmin""></div><p class=""progress""> [4/32]</br>number of points: 2</p>",70.0,['stimuli/O.png'],1.0,j,test,main,0.0,,Q-
,html-keyboard-response,40,153783,0.0-6.0-2.3,5f10222e37592b0f5c021e29,5ed519d5f242dd06a51883e7,5f1062793566652f07ac5bc5,False,0.23,fergy76,,,,"<div class=""central_stim""><img src=""stimuli/cat.png"" class=""cat""></div><p class=""progress""> [4/32]</br>number of points: 2</p>",,['stimuli/O.png'],1.0,j,test,feedback,,,Q-
,html-keyboard-response,41,154304,0.0-6.0-0.4,5f10222e37592b0f5c021e29,5ed519d5f242dd06a51883e7,5f1062793566652f07ac5bc5,False,0.23,fergy76,,,,"<h2>Will the cat appear after this screen?</h2><div class=""J_key""><strong>Yes</strong> <br> (press J)</div><div class=""F_key""><strong>No</strong> <br> (press F)</div><p class=""progress""> [5/32]</br>number of points: 2</p>",,['stimuli/Q.png'],0.0,f,test,prepare,,,O+
,html-keyboard-response,42,155575,0.0-6.0-1.4,5f10222e37592b0f5c021e29,5ed519d5f242dd06a51883e7,5f1062793566652f07ac5bc5,False,0.23,fergy76,1269.3999999999942,,,"<h2>Will the cat appear after this screen?</h2><div class=""J_key""><strong>Yes</strong> <br> (press J)</div><div class=""F_key""><strong>No</strong> <br> (press F)</div><div class=""central_stim""><img src=""stimuli/Q.png"" width=""30%"" style=""padding:2vmin""></div><p class=""progress""> [5/32]</br>number of points: 2</p>",70.0,['stimuli/Q.png'],0.0,f,test,main,1.0,,O+
,html-keyboard-response,43,157592,0.0-6.0-2.4,5f10222e37592b0f5c021e29,5ed519d5f242dd06a51883e7,5f1062793566652f07ac5bc5,False,0.23,fergy76,,,,"<div class=""central_stim""></div><p class=""progress""> [5/32]</br>number of points: 3</p>",,['stimuli/Q.png'],0.0,f,test,feedback,,,O+
,html-keyboard-response,44,158113,0.0-6.0-0.5,5f10222e37592b0f5c021e29,5ed519d5f242dd06a51883e7,5f1062793566652f07ac5bc5,False,0.23,fergy76,,,,"<h2>Will the cat appear after this screen?</h2><div class=""J_key""><strong>Yes</strong> <br> (press J)</div><div class=""F_key""><strong>No</strong> <br> (press F)</div><p class=""progress""> [6/32]</br>number of points: 3</p>",,['stimuli/heart.png'],1.0,j,test,prepare,,,B+
,html-keyboard-response,45,159130,0.0-6.0-1.5,5f10222e37592b0f5c021e29,5ed519d5f242dd06a51883e7,5f1062793566652f07ac5bc5,False,0.23,fergy76,1014.6000000000058,,,"<h2>Will the cat appear after this screen?</h2><div class=""J_key""><strong>Yes</strong> <br> (press J)</div><div class=""F_key""><strong>No</strong> <br> (press F)</div><div class=""central_stim""><img src=""stimuli/heart.png"" width=""30%"" style=""padding:2vmin""></div><p class=""progress""> [6/32]</br>number of points: 3</p>",74.0,['stimuli/heart.png'],1.0,j,test,main,1.0,,B+
,html-keyboard-response,46,161156,0.0-6.0-2.5,5f10222e37592b0f5c021e29,5ed519d5f242dd06a51883e7,5f1062793566652f07ac5bc5,False,0.23,fergy76,,,,"<div class=""central_stim""><img src=""stimuli/cat.png"" class=""cat""></div><p class=""progress""> [6/32]</br>number of points: 4</p>",,['stimuli/heart.png'],1.0,j,test,feedback,,,B+
,html-keyboard-response,47,161678,0.0-6.0-0.6,5f10222e37592b0f5c021e29,5ed519d5f242dd06a51883e7,5f1062793566652f07ac5bc5,False,0.23,fergy76,,,,"<h2>Will the cat appear after this screen?</h2><div class=""J_key""><strong>Yes</strong> <br> (press J)</div><div class=""F_key""><strong>No</strong> <br> (press F)</div><p class=""progress""> [7/32]</br>number of points: 4</p>",,['stimuli/plus.png'],0.0,f,test,prepare,,,E-
,html-keyboard-response,48,162727,0.0-6.0-1.6,5f10222e37592b0f5c021e29,5ed519d5f242dd06a51883e7,5f1062793566652f07ac5bc5,False,0.23,fergy76,1047.4000000000233,,,"<h2>Will the cat appear after this screen?</h2><div class=""J_key""><strong>Yes</strong> <br> (press J)</div><div class=""F_key""><strong>No</strong> <br> (press F)</div><div class=""central_stim""><img src=""stimuli/plus.png"" width=""30%"" style=""padding:2vmin""></div><p class=""progress""> [7/32]</br>number of points: 4</p>",74.0,['stimuli/plus.png'],0.0,f,test,main,0.0,,E-
,html-keyboard-response,49,164743,0.0-6.0-2.6,5f10222e37592b0f5c021e29,5ed519d5f242dd06a51883e7,5f1062793566652f07ac5bc5,False,0.23,fergy76,,,,"<div class=""central_stim""></div><p class=""progress""> [7/32]</br>number of points: 4</p>",,['stimuli/plus.png'],0.0,f,test,feedback,,,E-
,html-keyboard-response,50,165265,0.0-6.0-0.7,5f10222e37592b0f5c021e29,5ed519d5f242dd06a51883e7,5f1062793566652f07ac5bc5,False,0.23,fergy76,,,,"<h2>Will the cat appear after this screen?</h2><div class=""J_key""><strong>Yes</strong> <br> (press J)</div><div class=""F_key""><strong>No</strong> <br> (press F)</div><p class=""progress""> [8/32]</br>number of points: 4</p>",,['stimuli/spade.png'],0.0,f,test,prepare,,,A-
,html-keyboard-response,51,166346,0.0-6.0-1.7,5f10222e37592b0f5c021e29,5ed519d5f242dd06a51883e7,5f1062793566652f07ac5bc5,False,0.23,fergy76,1078.6000000000058,,,"<h2>Will the cat appear after this screen?</h2><div class=""J_key""><strong>Yes</strong> <br> (press J)</div><div class=""F_key""><strong>No</strong> <br> (press F)</div><div class=""central_stim""><img src=""stimuli/spade.png"" width=""30%"" style=""padding:2vmin""></div><p class=""progress""> [8/32]</br>number of points: 4</p>",70.0,['stimuli/spade.png'],0.0,f,test,main,1.0,,A-
,html-keyboard-response,52,168355,0.0-6.0-2.7,5f10222e37592b0f5c021e29,5ed519d5f242dd06a51883e7,5f1062793566652f07ac5bc5,False,0.23,fergy76,,,,"<div class=""central_stim""></div><p class=""progress""> [8/32]</br>number of points: 5</p>",,['stimuli/spade.png'],0.0,f,test,feedback,,,A-
,html-keyboard-response,53,168884,0.0-6.0-0.8,5f10222e37592b0f5c021e29,5ed519d5f242dd06a51883e7,5f1062793566652f07ac5bc5,False,0.23,fergy76,,,,"<h2>Will the cat appear after this screen?</h2><div class=""J_key""><strong>Yes</strong> <br> (press J)</div><div class=""F_key""><strong>No</strong> <br> (press F)</div><p class=""progress""> [9/32]</br>number of points: 5</p>",,['stimuli/Q.png'],0.0,f,test,prepare,,,O+
,html-keyboard-response,54,169853,0.0-6.0-1.8,5f10222e37592b0f5c021e29,5ed519d5f242dd06a51883e7,5f1062793566652f07ac5bc5,False,0.23,fergy76,966.6000000000058,,,"<h2>Will the cat appear after this screen?</h2><div class=""J_key""><strong>Yes</strong> <br> (press J)</div><div class=""F_key""><strong>No</strong> <br> (press F)</div><div class=""central_stim""><img src=""stimuli/Q.png"" width=""30%"" style=""padding:2vmin""></div><p class=""progress""> [9/32]</br>number of points: 5</p>",70.0,['stimuli/Q.png'],0.0,f,test,main,1.0,,O+
,html-keyboard-response,55,171861,0.0-6.0-2.8,5f10222e37592b0f5c021e29,5ed519d5f242dd06a51883e7,5f1062793566652f07ac5bc5,False,0.23,fergy76,,,,"<div class=""central_stim""></div><p class=""progress""> [9/32]</br>number of points: 6</p>",,['stimuli/Q.png'],0.0,f,test,feedback,,,O+
,html-keyboard-response,56,172370,0.0-6.0-0.9,5f10222e37592b0f5c021e29,5ed519d5f242dd06a51883e7,5f1062793566652f07ac5bc5,False,0.23,fergy76,,,,"<h2>Will the cat appear after this screen?</h2><div class=""J_key""><strong>Yes</strong> <br> (press J)</div><div class=""F_key""><strong>No</strong> <br> (press F)</div><p class=""progress""> [10/32]</br>number of points: 6</p>",,['stimuli/heart.png'],1.0,j,test,prepare,,,B+
,html-keyboard-response,57,173341,0.0-6.0-1.9,5f10222e37592b0f5c021e29,5ed519d5f242dd06a51883e7,5f1062793566652f07ac5bc5,False,0.23,fergy76,969.8999999999942,,,"<h2>Will the cat appear after this screen?</h2><div class=""J_key""><strong>Yes</strong> <br> (press J)</div><div class=""F_key""><strong>No</strong> <br> (press F)</div><div class=""central_stim""><img src=""stimuli/heart.png"" width=""30%"" style=""padding:2vmin""></div><p class=""progress""> [10/32]</br>number of points: 6</p>",74.0,['stimuli/heart.png'],1.0,j,test,main,1.0,,B+
,html-keyboard-response,58,175367,0.0-6.0-2.9,5f10222e37592b0f5c021e29,5ed519d5f242dd06a51883e7,5f1062793566652f07ac5bc5,False,0.23,fergy76,,,,"<div class=""central_stim""><img src=""stimuli/cat.png"" class=""cat""></div><p class=""progress""> [10/32]</br>number of points: 7</p>",,['stimuli/heart.png'],1.0,j,test,feedback,,,B+
,html-keyboard-response,59,175884,0.0-6.0-0.10,5f10222e37592b0f5c021e29,5ed519d5f242dd06a51883e7,5f1062793566652f07ac5bc5,False,0.23,fergy76,,,,"<h2>Will the cat appear after this screen?</h2><div class=""J_key""><strong>Yes</strong> <br> (press J)</div><div class=""F_key""><strong>No</strong> <br> (press F)</div><p class=""progress""> [11/32]</br>number of points: 7</p>",,['stimuli/star.png'],1.0,j,test,prepare,,,C+
,html-keyboard-response,60,177092,0.0-6.0-1.10,5f10222e37592b0f5c021e29,5ed519d5f242dd06a51883e7,5f1062793566652f07ac5bc5,False,0.23,fergy76,1205.7999999999884,,,"<h2>Will the cat appear after this screen?</h2><div class=""J_key""><strong>Yes</strong> <br> (press J)</div><div class=""F_key""><strong>No</strong> <br> (press F)</div><div class=""central_stim""><img src=""stimuli/star.png"" width=""30%"" style=""padding:2vmin""></div><p class=""progress""> [11/32]</br>number of points: 7</p>",74.0,['stimuli/star.png'],1.0,j,test,main,1.0,,C+
,html-keyboard-response,61,179110,0.0-6.0-2.10,5f10222e37592b0f5c021e29,5ed519d5f242dd06a51883e7,5f1062793566652f07ac5bc5,False,0.23,fergy76,,,,"<div class=""central_stim""><img src=""stimuli/cat.png"" class=""cat""></div><p class=""progress""> [11/32]</br>number of points: 8</p>",,['stimuli/star.png'],1.0,j,test,feedback,,,C+
,html-keyboard-response,62,179640,0.0-6.0-0.11,5f10222e37592b0f5c021e29,5ed519d5f242dd06a51883e7,5f1062793566652f07ac5bc5,False,0.23,fergy76,,,,"<h2>Will the cat appear after this screen?</h2><div class=""J_key""><strong>Yes</strong> <br> (press J)</div><div class=""F_key""><strong>No</strong> <br> (press F)</div><p class=""progress""> [12/32]</br>number of points: 8</p>",,['stimuli/plus.png'],0.0,f,test,prepare,,,E-
,html-keyboard-response,63,180506,0.0-6.0-1.11,5f10222e37592b0f5c021e29,5ed519d5f242dd06a51883e7,5f1062793566652f07ac5bc5,False,0.23,fergy76,862.8000000000175,,,"<h2>Will the cat appear after this screen?</h2><div class=""J_key""><strong>Yes</strong> <br> (press J)</div><div class=""F_key""><strong>No</strong> <br> (press F)</div><div class=""central_stim""><img src=""stimuli/plus.png"" width=""30%"" style=""padding:2vmin""></div><p class=""progress""> [12/32]</br>number of points: 8</p>",70.0,['stimuli/plus.png'],0.0,f,test,main,1.0,,E-
,html-keyboard-response,64,182524,0.0-6.0-2.11,5f10222e37592b0f5c021e29,5ed519d5f242dd06a51883e7,5f1062793566652f07ac5bc5,False,0.23,fergy76,,,,"<div class=""central_stim""></div><p class=""progress""> [12/32]</br>number of points: 9</p>",,['stimuli/plus.png'],0.0,f,test,feedback,,,E-
,html-keyboard-response,65,183041,0.0-6.0-0.12,5f10222e37592b0f5c021e29,5ed519d5f242dd06a51883e7,5f1062793566652f07ac5bc5,False,0.23,fergy76,,,,"<h2>Will the cat appear after this screen?</h2><div class=""J_key""><strong>Yes</strong> <br> (press J)</div><div class=""F_key""><strong>No</strong> <br> (press F)</div><p class=""progress""> [13/32]</br>number of points: 9</p>",,"['stimuli/star.png', 'stimuli/circle.png']",0.0,f,test,prepare,,,CD-
,html-keyboard-response,66,184110,0.0-6.0-1.12,5f10222e37592b0f5c021e29,5ed519d5f242dd06a51883e7,5f1062793566652f07ac5bc5,False,0.23,fergy76,1065.1999999999825,,,"<h2>Will the cat appear after this screen?</h2><div class=""J_key""><strong>Yes</strong> <br> (press J)</div><div class=""F_key""><strong>No</strong> <br> (press F)</div><div class=""central_stim""><img src=""stimuli/star.png"" width=""30%"" style=""padding:2vmin"">	<img src=""stimuli/circle.png"" width=""30%"" style=""padding:2vmin""></div><p class=""progress""> [13/32]</br>number of points: 9</p>",74.0,"['stimuli/star.png', 'stimuli/circle.png']",0.0,f,test,main,0.0,,CD-
,html-keyboard-response,67,186138,0.0-6.0-2.12,5f10222e37592b0f5c021e29,5ed519d5f242dd06a51883e7,5f1062793566652f07ac5bc5,False,0.23,fergy76,,,,"<div class=""central_stim""></div><p class=""progress""> [13/32]</br>number of points: 9</p>",,"['stimuli/star.png', 'stimuli/circle.png']",0.0,f,test,feedback,,,CD-
,html-keyboard-response,68,186647,0.0-6.0-0.13,5f10222e37592b0f5c021e29,5ed519d5f242dd06a51883e7,5f1062793566652f07ac5bc5,False,0.23,fergy76,,,,"<h2>Will the cat appear after this screen?</h2><div class=""J_key""><strong>Yes</strong> <br> (press J)</div><div class=""F_key""><strong>No</strong> <br> (press F)</div><p class=""progress""> [14/32]</br>number of points: 9</p>",,['stimuli/O.png'],1.0,j,test,prepare,,,Q-
,html-keyboard-response,69,187466,0.0-6.0-1.13,5f10222e37592b0f5c021e29,5ed519d5f242dd06a51883e7,5f1062793566652f07ac5bc5,False,0.23,fergy76,816.6999999999825,,,"<h2>Will the cat appear after this screen?</h2><div class=""J_key""><strong>Yes</strong> <br> (press J)</div><div class=""F_key""><strong>No</strong> <br> (press F)</div><div class=""central_stim""><img src=""stimuli/O.png"" width=""30%"" style=""padding:2vmin""></div><p class=""progress""> [14/32]</br>number of points: 9</p>",74.0,['stimuli/O.png'],1.0,j,test,main,1.0,,Q-
,html-keyboard-response,70,189469,0.0-6.0-2.13,5f10222e37592b0f5c021e29,5ed519d5f242dd06a51883e7,5f1062793566652f07ac5bc5,False,0.23,fergy76,,,,"<div class=""central_stim""><img src=""stimuli/cat.png"" class=""cat""></div><p class=""progress""> [14/32]</br>number of points: 10</p>",,['stimuli/O.png'],1.0,j,test,feedback,,,Q-
,html-keyboard-response,71,190005,0.0-6.0-0.14,5f10222e37592b0f5c021e29,5ed519d5f242dd06a51883e7,5f1062793566652f07ac5bc5,False,0.23,fergy76,,,,"<h2>Will the cat appear after this screen?</h2><div class=""J_key""><strong>Yes</strong> <br> (press J)</div><div class=""F_key""><strong>No</strong> <br> (press F)</div><p class=""progress""> [15/32]</br>number of points: 10</p>",,['stimuli/spade.png'],0.0,f,test,prepare,,,A-
,html-keyboard-response,72,190920,0.0-6.0-1.14,5f10222e37592b0f5c021e29,5ed519d5f242dd06a51883e7,5f1062793566652f07ac5bc5,False,0.23,fergy76,912.0,,,"<h2>Will the cat appear after this screen?</h2><div class=""J_key""><strong>Yes</strong> <br> (press J)</div><div class=""F_key""><strong>No</strong> <br> (press F)</div><div class=""central_stim""><img src=""stimuli/spade.png"" width=""30%"" style=""padding:2vmin""></div><p class=""progress""> [15/32]</br>number of points: 10</p>",74.0,['stimuli/spade.png'],0.0,f,test,main,0.0,,A-
,html-keyboard-response,73,192926,0.0-6.0-2.14,5f10222e37592b0f5c021e29,5ed519d5f242dd06a51883e7,5f1062793566652f07ac5bc5,False,0.23,fergy76,,,,"<div class=""central_stim""></div><p class=""progress""> [15/32]</br>number of points: 10</p>",,['stimuli/spade.png'],0.0,f,test,feedback,,,A-
,html-keyboard-response,74,193437,0.0-6.0-0.15,5f10222e37592b0f5c021e29,5ed519d5f242dd06a51883e7,5f1062793566652f07ac5bc5,False,0.23,fergy76,,,,"<h2>Will the cat appear after this screen?</h2><div class=""J_key""><strong>Yes</strong> <br> (press J)</div><div class=""F_key""><strong>No</strong> <br> (press F)</div><p class=""progress""> [16/32]</br>number of points: 10</p>",,"['stimuli/plus.png', 'stimuli/hexagon.png']",1.0,j,test,prepare,,,EF+
,html-keyboard-response,75,194762,0.0-6.0-1.15,5f10222e37592b0f5c021e29,5ed519d5f242dd06a51883e7,5f1062793566652f07ac5bc5,False,0.23,fergy76,1321.1000000000058,,,"<h2>Will the cat appear after this screen?</h2><div class=""J_key""><strong>Yes</strong> <br> (press J)</div><div class=""F_key""><strong>No</strong> <br> (press F)</div><div class=""central_stim""><img src=""stimuli/plus.png"" width=""30%"" style=""padding:2vmin"">	<img src=""stimuli/hexagon.png"" width=""30%"" style=""padding:2vmin""></div><p class=""progress""> [16/32]</br>number of points: 10</p>",74.0,"['stimuli/plus.png', 'stimuli/hexagon.png']",1.0,j,test,main,1.0,,EF+
,html-keyboard-response,76,196774,0.0-6.0-2.15,5f10222e37592b0f5c021e29,5ed519d5f242dd06a51883e7,5f1062793566652f07ac5bc5,False,0.23,fergy76,,,,"<div class=""central_stim""><img src=""stimuli/cat.png"" class=""cat""></div><p class=""progress""> [16/32]</br>number of points: 11</p>",,"['stimuli/plus.png', 'stimuli/hexagon.png']",1.0,j,test,feedback,,,EF+
,instructions,77,200681,0.0-7.0,5f10222e37592b0f5c021e29,5ed519d5f242dd06a51883e7,5f1062793566652f07ac5bc5,False,0.23,fergy76,3903.899999999994,,"[{""page_index"":0,""viewing_time"":3903.6999999999825}]",,,,,,,,,,
,html-keyboard-response,78,201198,0.0-8.0-0.0,5f10222e37592b0f5c021e29,5ed519d5f242dd06a51883e7,5f1062793566652f07ac5bc5,False,0.23,fergy76,,,,"<h2>Will the cat appear after this screen?</h2><div class=""J_key""><strong>Yes</strong> <br> (press J)</div><div class=""F_key""><strong>No</strong> <br> (press F)</div><p class=""progress""> [17/32]</br>number of points: 11</p>",,['stimuli/O.png'],1.0,j,test,prepare,,,Q-
,html-keyboard-response,79,202163,0.0-8.0-1.0,5f10222e37592b0f5c021e29,5ed519d5f242dd06a51883e7,5f1062793566652f07ac5bc5,False,0.23,fergy76,961.3999999999942,,,"<h2>Will the cat appear after this screen?</h2><div class=""J_key""><strong>Yes</strong> <br> (press J)</div><div class=""F_key""><strong>No</strong> <br> (press F)</div><div class=""central_stim""><img src=""stimuli/O.png"" width=""30%"" style=""padding:2vmin""></div><p class=""progress""> [17/32]</br>number of points: 11</p>",74.0,['stimuli/O.png'],1.0,j,test,main,1.0,,Q-
,html-keyboard-response,80,204180,0.0-8.0-2.0,5f10222e37592b0f5c021e29,5ed519d5f242dd06a51883e7,5f1062793566652f07ac5bc5,False,0.23,fergy76,,,,"<div class=""central_stim""><img src=""stimuli/cat.png"" class=""cat""></div><p class=""progress""> [17/32]</br>number of points: 12</p>",,['stimuli/O.png'],1.0,j,test,feedback,,,Q-
,html-keyboard-response,81,204701,0.0-8.0-0.1,5f10222e37592b0f5c021e29,5ed519d5f242dd06a51883e7,5f1062793566652f07ac5bc5,False,0.23,fergy76,,,,"<h2>Will the cat appear after this screen?</h2><div class=""J_key""><strong>Yes</strong> <br> (press J)</div><div class=""F_key""><strong>No</strong> <br> (press F)</div><p class=""progress""> [18/32]</br>number of points: 12</p>",,['stimuli/Q.png'],0.0,f,test,prepare,,,O+
,html-keyboard-response,82,205422,0.0-8.0-1.1,5f10222e37592b0f5c021e29,5ed519d5f242dd06a51883e7,5f1062793566652f07ac5bc5,False,0.23,fergy76,719.1000000000058,,,"<h2>Will the cat appear after this screen?</h2><div class=""J_key""><strong>Yes</strong> <br> (press J)</div><div class=""F_key""><strong>No</strong> <br> (press F)</div><div class=""central_stim""><img src=""stimuli/Q.png"" width=""30%"" style=""padding:2vmin""></div><p class=""progress""> [18/32]</br>number of points: 12</p>",70.0,['stimuli/Q.png'],0.0,f,test,main,1.0,,O+
,html-keyboard-response,83,207442,0.0-8.0-2.1,5f10222e37592b0f5c021e29,5ed519d5f242dd06a51883e7,5f1062793566652f07ac5bc5,False,0.23,fergy76,,,,"<div class=""central_stim""></div><p class=""progress""> [18/32]</br>number of points: 13</p>",,['stimuli/Q.png'],0.0,f,test,feedback,,,O+
,html-keyboard-response,84,207960,0.0-8.0-0.2,5f10222e37592b0f5c021e29,5ed519d5f242dd06a51883e7,5f1062793566652f07ac5bc5,False,0.23,fergy76,,,,"<h2>Will the cat appear after this screen?</h2><div class=""J_key""><strong>Yes</strong> <br> (press J)</div><div class=""F_key""><strong>No</strong> <br> (press F)</div><p class=""progress""> [19/32]</br>number of points: 13</p>",,"['stimuli/plus.png', 'stimuli/hexagon.png']",1.0,j,test,prepare,,,EF+
,html-keyboard-response,85,209172,0.0-8.0-1.2,5f10222e37592b0f5c021e29,5ed519d5f242dd06a51883e7,5f1062793566652f07ac5bc5,False,0.23,fergy76,1210.8000000000175,,,"<h2>Will the cat appear after this screen?</h2><div class=""J_key""><strong>Yes</strong> <br> (press J)</div><div class=""F_key""><strong>No</strong> <br> (press F)</div><div class=""central_stim""><img src=""stimuli/plus.png"" width=""30%"" style=""padding:2vmin"">	<img src=""stimuli/hexagon.png"" width=""30%"" style=""padding:2vmin""></div><p class=""progress""> [19/32]</br>number of points: 13</p>",74.0,"['stimuli/plus.png', 'stimuli/hexagon.png']",1.0,j,test,main,1.0,,EF+
,html-keyboard-response,86,211183,0.0-8.0-2.2,5f10222e37592b0f5c021e29,5ed519d5f242dd06a51883e7,5f1062793566652f07ac5bc5,False,0.23,fergy76,,,,"<div class=""central_stim""><img src=""stimuli/cat.png"" class=""cat""></div><p class=""progress""> [19/32]</br>number of points: 14</p>",,"['stimuli/plus.png', 'stimuli/hexagon.png']",1.0,j,test,feedback,,,EF+
,html-keyboard-response,87,211700,0.0-8.0-0.3,5f10222e37592b0f5c021e29,5ed519d5f242dd06a51883e7,5f1062793566652f07ac5bc5,False,0.23,fergy76,,,,"<h2>Will the cat appear after this screen?</h2><div class=""J_key""><strong>Yes</strong> <br> (press J)</div><div class=""F_key""><strong>No</strong> <br> (press F)</div><p class=""progress""> [20/32]</br>number of points: 14</p>",,['stimuli/heart.png'],1.0,j,test,prepare,,,B+
,html-keyboard-response,88,212712,0.0-8.0-1.3,5f10222e37592b0f5c021e29,5ed519d5f242dd06a51883e7,5f1062793566652f07ac5bc5,False,0.23,fergy76,1010.2999999999884,,,"<h2>Will the cat appear after this screen?</h2><div class=""J_key""><strong>Yes</strong> <br> (press J)</div><div class=""F_key""><strong>No</strong> <br> (press F)</div><div class=""central_stim""><img src=""stimuli/heart.png"" width=""30%"" style=""padding:2vmin""></div><p class=""progress""> [20/32]</br>number of points: 14</p>",74.0,['stimuli/heart.png'],1.0,j,test,main,1.0,,B+
,html-keyboard-response,89,214724,0.0-8.0-2.3,5f10222e37592b0f5c021e29,5ed519d5f242dd06a51883e7,5f1062793566652f07ac5bc5,False,0.23,fergy76,,,,"<div class=""central_stim""><img src=""stimuli/cat.png"" class=""cat""></div><p class=""progress""> [20/32]</br>number of points: 15</p>",,['stimuli/heart.png'],1.0,j,test,feedback,,,B+
,html-keyboard-response,90,215245,0.0-8.0-0.4,5f10222e37592b0f5c021e29,5ed519d5f242dd06a51883e7,5f1062793566652f07ac5bc5,False,0.23,fergy76,,,,"<h2>Will the cat appear after this screen?</h2><div class=""J_key""><strong>Yes</strong> <br> (press J)</div><div class=""F_key""><strong>No</strong> <br> (press F)</div><p class=""progress""> [21/32]</br>number of points: 15</p>",,"['stimuli/star.png', 'stimuli/circle.png']",0.0,f,test,prepare,,,CD-
,html-keyboard-response,91,215886,0.0-8.0-1.4,5f10222e37592b0f5c021e29,5ed519d5f242dd06a51883e7,5f1062793566652f07ac5bc5,False,0.23,fergy76,638.2000000000116,,,"<h2>Will the cat appear after this screen?</h2><div class=""J_key""><strong>Yes</strong> <br> (press J)</div><div class=""F_key""><strong>No</strong> <br> (press F)</div><div class=""central_stim""><img src=""stimuli/star.png"" width=""30%"" style=""padding:2vmin"">	<img src=""stimuli/circle.png"" width=""30%"" style=""padding:2vmin""></div><p class=""progress""> [21/32]</br>number of points: 15</p>",70.0,"['stimuli/star.png', 'stimuli/circle.png']",0.0,f,test,main,1.0,,CD-
,html-keyboard-response,92,217912,0.0-8.0-2.4,5f10222e37592b0f5c021e29,5ed519d5f242dd06a51883e7,5f1062793566652f07ac5bc5,False,0.23,fergy76,,,,"<div class=""central_stim""></div><p class=""progress""> [21/32]</br>number of points: 16</p>",,"['stimuli/star.png', 'stimuli/circle.png']",0.0,f,test,feedback,,,CD-
,html-keyboard-response,93,218431,0.0-8.0-0.5,5f10222e37592b0f5c021e29,5ed519d5f242dd06a51883e7,5f1062793566652f07ac5bc5,False,0.23,fergy76,,,,"<h2>Will the cat appear after this screen?</h2><div class=""J_key""><strong>Yes</strong> <br> (press J)</div><div class=""F_key""><strong>No</strong> <br> (press F)</div><p class=""progress""> [22/32]</br>number of points: 16</p>",,['stimuli/spade.png'],0.0,f,test,prepare,,,A-
,html-keyboard-response,94,219264,0.0-8.0-1.5,5f10222e37592b0f5c021e29,5ed519d5f242dd06a51883e7,5f1062793566652f07ac5bc5,False,0.23,fergy76,830.7000000000116,,,"<h2>Will the cat appear after this screen?</h2><div class=""J_key""><strong>Yes</strong> <br> (press J)</div><div class=""F_key""><strong>No</strong> <br> (press F)</div><div class=""central_stim""><img src=""stimuli/spade.png"" width=""30%"" style=""padding:2vmin""></div><p class=""progress""> [22/32]</br>number of points: 16</p>",74.0,['stimuli/spade.png'],0.0,f,test,main,0.0,,A-
,html-keyboard-response,95,221286,0.0-8.0-2.5,5f10222e37592b0f5c021e29,5ed519d5f242dd06a51883e7,5f1062793566652f07ac5bc5,False,0.23,fergy76,,,,"<div class=""central_stim""></div><p class=""progress""> [22/32]</br>number of points: 16</p>",,['stimuli/spade.png'],0.0,f,test,feedback,,,A-
,html-keyboard-response,96,221796,0.0-8.0-0.6,5f10222e37592b0f5c021e29,5ed519d5f242dd06a51883e7,5f1062793566652f07ac5bc5,False,0.23,fergy76,,,,"<h2>Will the cat appear after this screen?</h2><div class=""J_key""><strong>Yes</strong> <br> (press J)</div><div class=""F_key""><strong>No</strong> <br> (press F)</div><p class=""progress""> [23/32]</br>number of points: 16</p>",,['stimuli/star.png'],1.0,j,test,prepare,,,C+
,html-keyboard-response,97,222707,0.0-8.0-1.6,5f10222e37592b0f5c021e29,5ed519d5f242dd06a51883e7,5f1062793566652f07ac5bc5,False,0.23,fergy76,909.0,,,"<h2>Will the cat appear after this screen?</h2><div class=""J_key""><strong>Yes</strong> <br> (press J)</div><div class=""F_key""><strong>No</strong> <br> (press F)</div><div class=""central_stim""><img src=""stimuli/star.png"" width=""30%"" style=""padding:2vmin""></div><p class=""progress""> [23/32]</br>number of points: 16</p>",70.0,['stimuli/star.png'],1.0,j,test,main,0.0,,C+
,html-keyboard-response,98,224722,0.0-8.0-2.6,5f10222e37592b0f5c021e29,5ed519d5f242dd06a51883e7,5f1062793566652f07ac5bc5,False,0.23,fergy76,,,,"<div class=""central_stim""><img src=""stimuli/cat.png"" class=""cat""></div><p class=""progress""> [23/32]</br>number of points: 16</p>",,['stimuli/star.png'],1.0,j,test,feedback,,,C+
,html-keyboard-response,99,225240,0.0-8.0-0.7,5f10222e37592b0f5c021e29,5ed519d5f242dd06a51883e7,5f1062793566652f07ac5bc5,False,0.23,fergy76,,,,"<h2>Will the cat appear after this screen?</h2><div class=""J_key""><strong>Yes</strong> <br> (press J)</div><div class=""F_key""><strong>No</strong> <br> (press F)</div><p class=""progress""> [24/32]</br>number of points: 16</p>",,['stimuli/plus.png'],0.0,f,test,prepare,,,E-
,html-keyboard-response,100,226198,0.0-8.0-1.7,5f10222e37592b0f5c021e29,5ed519d5f242dd06a51883e7,5f1062793566652f07ac5bc5,False,0.23,fergy76,956.3000000000175,,,"<h2>Will the cat appear after this screen?</h2><div class=""J_key""><strong>Yes</strong> <br> (press J)</div><div class=""F_key""><strong>No</strong> <br> (press F)</div><div class=""central_stim""><img src=""stimuli/plus.png"" width=""30%"" style=""padding:2vmin""></div><p class=""progress""> [24/32]</br>number of points: 16</p>",74.0,['stimuli/plus.png'],0.0,f,test,main,0.0,,E-
,html-keyboard-response,101,228212,0.0-8.0-2.7,5f10222e37592b0f5c021e29,5ed519d5f242dd06a51883e7,5f1062793566652f07ac5bc5,False,0.23,fergy76,,,,"<div class=""central_stim""></div><p class=""progress""> [24/32]</br>number of points: 16</p>",,['stimuli/plus.png'],0.0,f,test,feedback,,,E-
,html-keyboard-response,102,228748,0.0-8.0-0.8,5f10222e37592b0f5c021e29,5ed519d5f242dd06a51883e7,5f1062793566652f07ac5bc5,False,0.23,fergy76,,,,"<h2>Will the cat appear after this screen?</h2><div class=""J_key""><strong>Yes</strong> <br> (press J)</div><div class=""F_key""><strong>No</strong> <br> (press F)</div><p class=""progress""> [25/32]</br>number of points: 16</p>",,['stimuli/plus.png'],0.0,f,test,prepare,,,E-
,html-keyboard-response,103,229615,0.0-8.0-1.8,5f10222e37592b0f5c021e29,5ed519d5f242dd06a51883e7,5f1062793566652f07ac5bc5,False,0.23,fergy76,864.7000000000116,,,"<h2>Will the cat appear after this screen?</h2><div class=""J_key""><strong>Yes</strong> <br> (press J)</div><div class=""F_key""><strong>No</strong> <br> (press F)</div><div class=""central_stim""><img src=""stimuli/plus.png"" width=""30%"" style=""padding:2vmin""></div><p class=""progress""> [25/32]</br>number of points: 16</p>",74.0,['stimuli/plus.png'],0.0,f,test,main,0.0,,E-
,html-keyboard-response,104,231636,0.0-8.0-2.8,5f10222e37592b0f5c021e29,5ed519d5f242dd06a51883e7,5f1062793566652f07ac5bc5,False,0.23,fergy76,,,,"<div class=""central_stim""></div><p class=""progress""> [25/32]</br>number of points: 16</p>",,['stimuli/plus.png'],0.0,f,test,feedback,,,E-
,html-keyboard-response,105,232157,0.0-8.0-0.9,5f10222e37592b0f5c021e29,5ed519d5f242dd06a51883e7,5f1062793566652f07ac5bc5,False,0.23,fergy76,,,,"<h2>Will the cat appear after this screen?</h2><div class=""J_key""><strong>Yes</strong> <br> (press J)</div><div class=""F_key""><strong>No</strong> <br> (press F)</div><p class=""progress""> [26/32]</br>number of points: 16</p>",,['stimuli/Q.png'],0.0,f,test,prepare,,,O+
,html-keyboard-response,106,233206,0.0-8.0-1.9,5f10222e37592b0f5c021e29,5ed519d5f242dd06a51883e7,5f1062793566652f07ac5bc5,False,0.23,fergy76,1046.8000000000175,,,"<h2>Will the cat appear after this screen?</h2><div class=""J_key""><strong>Yes</strong> <br> (press J)</div><div class=""F_key""><strong>No</strong> <br> (press F)</div><div class=""central_stim""><img src=""stimuli/Q.png"" width=""30%"" style=""padding:2vmin""></div><p class=""progress""> [26/32]</br>number of points: 16</p>",70.0,['stimuli/Q.png'],0.0,f,test,main,1.0,,O+
,html-keyboard-response,107,235226,0.0-8.0-2.9,5f10222e37592b0f5c021e29,5ed519d5f242dd06a51883e7,5f1062793566652f07ac5bc5,False,0.23,fergy76,,,,"<div class=""central_stim""></div><p class=""progress""> [26/32]</br>number of points: 17</p>",,['stimuli/Q.png'],0.0,f,test,feedback,,,O+
,html-keyboard-response,108,235743,0.0-8.0-0.10,5f10222e37592b0f5c021e29,5ed519d5f242dd06a51883e7,5f1062793566652f07ac5bc5,False,0.23,fergy76,,,,"<h2>Will the cat appear after this screen?</h2><div class=""J_key""><strong>Yes</strong> <br> (press J)</div><div class=""F_key""><strong>No</strong> <br> (press F)</div><p class=""progress""> [27/32]</br>number of points: 17</p>",,"['stimuli/plus.png', 'stimuli/hexagon.png']",1.0,j,test,prepare,,,EF+
,html-keyboard-response,109,236923,0.0-8.0-1.10,5f10222e37592b0f5c021e29,5ed519d5f242dd06a51883e7,5f1062793566652f07ac5bc5,False,0.23,fergy76,1177.4000000000233,,,"<h2>Will the cat appear after this screen?</h2><div class=""J_key""><strong>Yes</strong> <br> (press J)</div><div class=""F_key""><strong>No</strong> <br> (press F)</div><div class=""central_stim""><img src=""stimuli/plus.png"" width=""30%"" style=""padding:2vmin"">	<img src=""stimuli/hexagon.png"" width=""30%"" style=""padding:2vmin""></div><p class=""progress""> [27/32]</br>number of points: 17</p>",74.0,"['stimuli/plus.png', 'stimuli/hexagon.png']",1.0,j,test,main,1.0,,EF+
,html-keyboard-response,110,238947,0.0-8.0-2.10,5f10222e37592b0f5c021e29,5ed519d5f242dd06a51883e7,5f1062793566652f07ac5bc5,False,0.23,fergy76,,,,"<div class=""central_stim""><img src=""stimuli/cat.png"" class=""cat""></div><p class=""progress""> [27/32]</br>number of points: 18</p>",,"['stimuli/plus.png', 'stimuli/hexagon.png']",1.0,j,test,feedback,,,EF+
,html-keyboard-response,111,239473,0.0-8.0-0.11,5f10222e37592b0f5c021e29,5ed519d5f242dd06a51883e7,5f1062793566652f07ac5bc5,False,0.23,fergy76,,,,"<h2>Will the cat appear after this screen?</h2><div class=""J_key""><strong>Yes</strong> <br> (press J)</div><div class=""F_key""><strong>No</strong> <br> (press F)</div><p class=""progress""> [28/32]</br>number of points: 18</p>",,"['stimuli/star.png', 'stimuli/circle.png']",0.0,f,test,prepare,,,CD-
,html-keyboard-response,112,240470,0.0-8.0-1.11,5f10222e37592b0f5c021e29,5ed519d5f242dd06a51883e7,5f1062793566652f07ac5bc5,False,0.23,fergy76,994.0,,,"<h2>Will the cat appear after this screen?</h2><div class=""J_key""><strong>Yes</strong> <br> (press J)</div><div class=""F_key""><strong>No</strong> <br> (press F)</div><div class=""central_stim""><img src=""stimuli/star.png"" width=""30%"" style=""padding:2vmin"">	<img src=""stimuli/circle.png"" width=""30%"" style=""padding:2vmin""></div><p class=""progress""> [28/32]</br>number of points: 18</p>",70.0,"['stimuli/star.png', 'stimuli/circle.png']",0.0,f,test,main,1.0,,CD-
,html-keyboard-response,113,242500,0.0-8.0-2.11,5f10222e37592b0f5c021e29,5ed519d5f242dd06a51883e7,5f1062793566652f07ac5bc5,False,0.23,fergy76,,,,"<div class=""central_stim""></div><p class=""progress""> [28/32]</br>number of points: 19</p>",,"['stimuli/star.png', 'stimuli/circle.png']",0.0,f,test,feedback,,,CD-
,html-keyboard-response,114,243013,0.0-8.0-0.12,5f10222e37592b0f5c021e29,5ed519d5f242dd06a51883e7,5f1062793566652f07ac5bc5,False,0.23,fergy76,,,,"<h2>Will the cat appear after this screen?</h2><div class=""J_key""><strong>Yes</strong> <br> (press J)</div><div class=""F_key""><strong>No</strong> <br> (press F)</div><p class=""progress""> [29/32]</br>number of points: 19</p>",,['stimuli/spade.png'],0.0,f,test,prepare,,,A-
,html-keyboard-response,115,244119,0.0-8.0-1.12,5f10222e37592b0f5c021e29,5ed519d5f242dd06a51883e7,5f1062793566652f07ac5bc5,False,0.23,fergy76,1103.1999999999825,,,"<h2>Will the cat appear after this screen?</h2><div class=""J_key""><strong>Yes</strong> <br> (press J)</div><div class=""F_key""><strong>No</strong> <br> (press F)</div><div class=""central_stim""><img src=""stimuli/spade.png"" width=""30%"" style=""padding:2vmin""></div><p class=""progress""> [29/32]</br>number of points: 19</p>",70.0,['stimuli/spade.png'],0.0,f,test,main,1.0,,A-
,html-keyboard-response,116,246141,0.0-8.0-2.12,5f10222e37592b0f5c021e29,5ed519d5f242dd06a51883e7,5f1062793566652f07ac5bc5,False,0.23,fergy76,,,,"<div class=""central_stim""></div><p class=""progress""> [29/32]</br>number of points: 20</p>",,['stimuli/spade.png'],0.0,f,test,feedback,,,A-
,html-keyboard-response,117,246661,0.0-8.0-0.13,5f10222e37592b0f5c021e29,5ed519d5f242dd06a51883e7,5f1062793566652f07ac5bc5,False,0.23,fergy76,,,,"<h2>Will the cat appear after this screen?</h2><div class=""J_key""><strong>Yes</strong> <br> (press J)</div><div class=""F_key""><strong>No</strong> <br> (press F)</div><p class=""progress""> [30/32]</br>number of points: 20</p>",,['stimuli/heart.png'],1.0,j,test,prepare,,,B+
,html-keyboard-response,118,247618,0.0-8.0-1.13,5f10222e37592b0f5c021e29,5ed519d5f242dd06a51883e7,5f1062793566652f07ac5bc5,False,0.23,fergy76,954.2999999999884,,,"<h2>Will the cat appear after this screen?</h2><div class=""J_key""><strong>Yes</strong> <br> (press J)</div><div class=""F_key""><strong>No</strong> <br> (press F)</div><div class=""central_stim""><img src=""stimuli/heart.png"" width=""30%"" style=""padding:2vmin""></div><p class=""progress""> [30/32]</br>number of points: 20</p>",74.0,['stimuli/heart.png'],1.0,j,test,main,1.0,,B+
,html-keyboard-response,119,249639,0.0-8.0-2.13,5f10222e37592b0f5c021e29,5ed519d5f242dd06a51883e7,5f1062793566652f07ac5bc5,False,0.23,fergy76,,,,"<div class=""central_stim""><img src=""stimuli/cat.png"" class=""cat""></div><p class=""progress""> [30/32]</br>number of points: 21</p>",,['stimuli/heart.png'],1.0,j,test,feedback,,,B+
,html-keyboard-response,120,250158,0.0-8.0-0.14,5f10222e37592b0f5c021e29,5ed519d5f242dd06a51883e7,5f1062793566652f07ac5bc5,False,0.23,fergy76,,,,"<h2>Will the cat appear after this screen?</h2><div class=""J_key""><strong>Yes</strong> <br> (press J)</div><div class=""F_key""><strong>No</strong> <br> (press F)</div><p class=""progress""> [31/32]</br>number of points: 21</p>",,['stimuli/O.png'],1.0,j,test,prepare,,,Q-
,html-keyboard-response,121,250927,0.0-8.0-1.14,5f10222e37592b0f5c021e29,5ed519d5f242dd06a51883e7,5f1062793566652f07ac5bc5,False,0.23,fergy76,766.8999999999942,,,"<h2>Will the cat appear after this screen?</h2><div class=""J_key""><strong>Yes</strong> <br> (press J)</div><div class=""F_key""><strong>No</strong> <br> (press F)</div><div class=""central_stim""><img src=""stimuli/O.png"" width=""30%"" style=""padding:2vmin""></div><p class=""progress""> [31/32]</br>number of points: 21</p>",74.0,['stimuli/O.png'],1.0,j,test,main,1.0,,Q-
,html-keyboard-response,122,252941,0.0-8.0-2.14,5f10222e37592b0f5c021e29,5ed519d5f242dd06a51883e7,5f1062793566652f07ac5bc5,False,0.23,fergy76,,,,"<div class=""central_stim""><img src=""stimuli/cat.png"" class=""cat""></div><p class=""progress""> [31/32]</br>number of points: 22</p>",,['stimuli/O.png'],1.0,j,test,feedback,,,Q-
,html-keyboard-response,123,253459,0.0-8.0-0.15,5f10222e37592b0f5c021e29,5ed519d5f242dd06a51883e7,5f1062793566652f07ac5bc5,False,0.23,fergy76,,,,"<h2>Will the cat appear after this screen?</h2><div class=""J_key""><strong>Yes</strong> <br> (press J)</div><div class=""F_key""><strong>No</strong> <br> (press F)</div><p class=""progress""> [32/32]</br>number of points: 22</p>",,['stimuli/star.png'],1.0,j,test,prepare,,,C+
,html-keyboard-response,124,254308,0.0-8.0-1.15,5f10222e37592b0f5c021e29,5ed519d5f242dd06a51883e7,5f1062793566652f07ac5bc5,False,0.23,fergy76,844.6999999999825,,,"<h2>Will the cat appear after this screen?</h2><div class=""J_key""><strong>Yes</strong> <br> (press J)</div><div class=""F_key""><strong>No</strong> <br> (press F)</div><div class=""central_stim""><img src=""stimuli/star.png"" width=""30%"" style=""padding:2vmin""></div><p class=""progress""> [32/32]</br>number of points: 22</p>",74.0,['stimuli/star.png'],1.0,j,test,main,1.0,,C+
,html-keyboard-response,125,256322,0.0-8.0-2.15,5f10222e37592b0f5c021e29,5ed519d5f242dd06a51883e7,5f1062793566652f07ac5bc5,False,0.23,fergy76,,,,"<div class=""central_stim""><img src=""stimuli/cat.png"" class=""cat""></div><p class=""progress""> [32/32]</br>number of points: 23</p>",,['stimuli/star.png'],1.0,j,test,feedback,,,C+
,survey-text,126,273296,0.0-9.0,5f10222e37592b0f5c021e29,5ed519d5f242dd06a51883e7,5f1062793566652f07ac5bc5,False,0.23,fergy76,16967.100000000006,,,,,,,,,,,"{""Q0"":""I liked the cat!""}",
,instructions,127,281546,0.0-10.0,5f10222e37592b0f5c021e29,5ed519d5f242dd06a51883e7,5f1062793566652f07ac5bc5,False,0.23,fergy76,8247.799999999988,,"[{""page_index"":0,""viewing_time"":8247.799999999988}]",,,,,,,,,,
1.0,fullscreen,0,2904,0.0-0.0,5f10222e37592b0f5c021e29,5ee25eaee623063409d1e4a7,5f105d4fef62492e3c1163be,True,0.14,QuixoticAnt,,,,,,,,,,,,,
,external-html,1,24627,0.0-1.0,5f10222e37592b0f5c021e29,5ee25eaee623063409d1e4a7,5f105d4fef62492e3c1163be,True,0.14,QuixoticAnt,21687.815000000228,nickname.html,,,,,,,,,,,
,instructions,2,57659,0.0-2.0,5f10222e37592b0f5c021e29,5ee25eaee623063409d1e4a7,5f105d4fef62492e3c1163be,True,0.14,QuixoticAnt,33029.47999999924,,"[{""page_index"":0,""viewing_time"":5501.724999999169},{""page_index"":1,""viewing_time"":6218.51500000048},{""page_index"":2,""viewing_time"":12478.54499999994},{""page_index"":3,""viewing_time"":7489.290000000437},{""page_index"":4,""viewing_time"":1339.814999999362}]",,,,,,,,,,
,html-keyboard-response,3,58167,0.0-3.0-0.0-0.0,5f10222e37592b0f5c021e29,5ee25eaee623063409d1e4a7,5f105d4fef62492e3c1163be,True,0.14,QuixoticAnt,,,,"<h2>Will the cat appear after this screen?</h2><div class=""J_key""><strong>Yes</strong> <br> (press J)</div><div class=""F_key""><strong>No</strong> <br> (press F)</div>",,['stimuli/spade.png'],1.0,j,practice,prepare,,,
,html-keyboard-response,4,60173,0.0-3.0-0.0-1.0,5f10222e37592b0f5c021e29,5ee25eaee623063409d1e4a7,5f105d4fef62492e3c1163be,True,0.14,QuixoticAnt,,,,"<h2>Will the cat appear after this screen?</h2><div class=""J_key""><strong>Yes</strong> <br> (press J)</div><div class=""F_key""><strong>No</strong> <br> (press F)</div><div class=""central_stim""><img src=""stimuli/spade.png"" width=""30%"" style=""padding:2vmin""></div>",,['stimuli/spade.png'],1.0,j,practice,main,,,
,html-keyboard-response,5,62178,0.0-3.0-0.0-2.0,5f10222e37592b0f5c021e29,5ee25eaee623063409d1e4a7,5f105d4fef62492e3c1163be,True,0.14,QuixoticAnt,,,,"<div class=""central_stim""><img src=""stimuli/cat.png"" class=""cat""></div>",,['stimuli/spade.png'],1.0,j,practice,feedback,,,
,html-keyboard-response,6,62684,0.0-3.0-0.0-0.1,5f10222e37592b0f5c021e29,5ee25eaee623063409d1e4a7,5f105d4fef62492e3c1163be,True,0.14,QuixoticAnt,,,,"<h2>Will the cat appear after this screen?</h2><div class=""J_key""><strong>Yes</strong> <br> (press J)</div><div class=""F_key""><strong>No</strong> <br> (press F)</div>",,['stimuli/star.png'],0.0,f,practice,prepare,,,
,html-keyboard-response,7,64686,0.0-3.0-0.0-1.1,5f10222e37592b0f5c021e29,5ee25eaee623063409d1e4a7,5f105d4fef62492e3c1163be,True,0.14,QuixoticAnt,,,,"<h2>Will the cat appear after this screen?</h2><div class=""J_key""><strong>Yes</strong> <br> (press J)</div><div class=""F_key""><strong>No</strong> <br> (press F)</div><div class=""central_stim""><img src=""stimuli/star.png"" width=""30%"" style=""padding:2vmin""></div>",,['stimuli/star.png'],0.0,f,practice,main,,,
,html-keyboard-response,8,66689,0.0-3.0-0.0-2.1,5f10222e37592b0f5c021e29,5ee25eaee623063409d1e4a7,5f105d4fef62492e3c1163be,True,0.14,QuixoticAnt,,,,"<div class=""central_stim""></div>",,['stimuli/star.png'],0.0,f,practice,feedback,,,
,html-keyboard-response,9,67192,0.0-3.0-0.0-0.2,5f10222e37592b0f5c021e29,5ee25eaee623063409d1e4a7,5f105d4fef62492e3c1163be,True,0.14,QuixoticAnt,,,,"<h2>Will the cat appear after this screen?</h2><div class=""J_key""><strong>Yes</strong> <br> (press J)</div><div class=""F_key""><strong>No</strong> <br> (press F)</div>",,['stimuli/spade.png'],1.0,j,practice,prepare,,,
,html-keyboard-response,10,68058,0.0-3.0-0.0-1.2,5f10222e37592b0f5c021e29,5ee25eaee623063409d1e4a7,5f105d4fef62492e3c1163be,True,0.14,QuixoticAnt,863.5450000001583,,,"<h2>Will the cat appear after this screen?</h2><div class=""J_key""><strong>Yes</strong> <br> (press J)</div><div class=""F_key""><strong>No</strong> <br> (press F)</div><div class=""central_stim""><img src=""stimuli/spade.png"" width=""30%"" style=""padding:2vmin""></div>",74.0,['stimuli/spade.png'],1.0,j,practice,main,1.0,,
,html-keyboard-response,11,70061,0.0-3.0-0.0-2.2,5f10222e37592b0f5c021e29,5ee25eaee623063409d1e4a7,5f105d4fef62492e3c1163be,True,0.14,QuixoticAnt,,,,"<div class=""central_stim""><img src=""stimuli/cat.png"" class=""cat""></div>",,['stimuli/spade.png'],1.0,j,practice,feedback,,,
,html-keyboard-response,12,70564,0.0-3.0-0.0-0.3,5f10222e37592b0f5c021e29,5ee25eaee623063409d1e4a7,5f105d4fef62492e3c1163be,True,0.14,QuixoticAnt,,,,"<h2>Will the cat appear after this screen?</h2><div class=""J_key""><strong>Yes</strong> <br> (press J)</div><div class=""F_key""><strong>No</strong> <br> (press F)</div>",,['stimuli/star.png'],0.0,f,practice,prepare,,,
,html-keyboard-response,13,71396,0.0-3.0-0.0-1.3,5f10222e37592b0f5c021e29,5ee25eaee623063409d1e4a7,5f105d4fef62492e3c1163be,True,0.14,QuixoticAnt,830.4900000002817,,,"<h2>Will the cat appear after this screen?</h2><div class=""J_key""><strong>Yes</strong> <br> (press J)</div><div class=""F_key""><strong>No</strong> <br> (press F)</div><div class=""central_stim""><img src=""stimuli/star.png"" width=""30%"" style=""padding:2vmin""></div>",70.0,['stimuli/star.png'],0.0,f,practice,main,1.0,,
,html-keyboard-response,14,73400,0.0-3.0-0.0-2.3,5f10222e37592b0f5c021e29,5ee25eaee623063409d1e4a7,5f105d4fef62492e3c1163be,True,0.14,QuixoticAnt,,,,"<div class=""central_stim""></div>",,['stimuli/star.png'],0.0,f,practice,feedback,,,
,html-keyboard-response,15,73904,0.0-3.1-0.1-0.4,5f10222e37592b0f5c021e29,5ee25eaee623063409d1e4a7,5f105d4fef62492e3c1163be,True,0.14,QuixoticAnt,,,,"<h2>Will the cat appear after this screen?</h2><div class=""J_key""><strong>Yes</strong> <br> (press J)</div><div class=""F_key""><strong>No</strong> <br> (press F)</div>",,['stimuli/spade.png'],1.0,j,practice,prepare,,,
,html-keyboard-response,16,74532,0.0-3.1-0.1-1.4,5f10222e37592b0f5c021e29,5ee25eaee623063409d1e4a7,5f105d4fef62492e3c1163be,True,0.14,QuixoticAnt,626.4650000002875,,,"<h2>Will the cat appear after this screen?</h2><div class=""J_key""><strong>Yes</strong> <br> (press J)</div><div class=""F_key""><strong>No</strong> <br> (press F)</div><div class=""central_stim""><img src=""stimuli/spade.png"" width=""30%"" style=""padding:2vmin""></div>",74.0,['stimuli/spade.png'],1.0,j,practice,main,1.0,,
,html-keyboard-response,17,76535,0.0-3.1-0.1-2.4,5f10222e37592b0f5c021e29,5ee25eaee623063409d1e4a7,5f105d4fef62492e3c1163be,True,0.14,QuixoticAnt,,,,"<div class=""central_stim""><img src=""stimuli/cat.png"" class=""cat""></div>",,['stimuli/spade.png'],1.0,j,practice,feedback,,,
,html-keyboard-response,18,77039,0.0-3.1-0.1-0.5,5f10222e37592b0f5c021e29,5ee25eaee623063409d1e4a7,5f105d4fef62492e3c1163be,True,0.14,QuixoticAnt,,,,"<h2>Will the cat appear after this screen?</h2><div class=""J_key""><strong>Yes</strong> <br> (press J)</div><div class=""F_key""><strong>No</strong> <br> (press F)</div>",,['stimuli/star.png'],0.0,f,practice,prepare,,,
,html-keyboard-response,19,77800,0.0-3.1-0.1-1.5,5f10222e37592b0f5c021e29,5ee25eaee623063409d1e4a7,5f105d4fef62492e3c1163be,True,0.14,QuixoticAnt,759.6849999999977,,,"<h2>Will the cat appear after this screen?</h2><div class=""J_key""><strong>Yes</strong> <br> (press J)</div><div class=""F_key""><strong>No</strong> <br> (press F)</div><div class=""central_stim""><img src=""stimuli/star.png"" width=""30%"" style=""padding:2vmin""></div>",70.0,['stimuli/star.png'],0.0,f,practice,main,1.0,,
,html-keyboard-response,20,79802,0.0-3.1-0.1-2.5,5f10222e37592b0f5c021e29,5ee25eaee623063409d1e4a7,5f105d4fef62492e3c1163be,True,0.14,QuixoticAnt,,,,"<div class=""central_stim""></div>",,['stimuli/star.png'],0.0,f,practice,feedback,,,
,html-keyboard-response,21,80306,0.0-3.1-0.1-0.6,5f10222e37592b0f5c021e29,5ee25eaee623063409d1e4a7,5f105d4fef62492e3c1163be,True,0.14,QuixoticAnt,,,,"<h2>Will the cat appear after this screen?</h2><div class=""J_key""><strong>Yes</strong> <br> (press J)</div><div class=""F_key""><strong>No</strong> <br> (press F)</div>",,['stimuli/star.png'],0.0,f,practice,prepare,,,
,html-keyboard-response,22,81535,0.0-3.1-0.1-1.6,5f10222e37592b0f5c021e29,5ee25eaee623063409d1e4a7,5f105d4fef62492e3c1163be,True,0.14,QuixoticAnt,1227.5399999998626,,,"<h2>Will the cat appear after this screen?</h2><div class=""J_key""><strong>Yes</strong> <br> (press J)</div><div class=""F_key""><strong>No</strong> <br> (press F)</div><div class=""central_stim""><img src=""stimuli/star.png"" width=""30%"" style=""padding:2vmin""></div>",70.0,['stimuli/star.png'],0.0,f,practice,main,1.0,,
,html-keyboard-response,23,83541,0.0-3.1-0.1-2.6,5f10222e37592b0f5c021e29,5ee25eaee623063409d1e4a7,5f105d4fef62492e3c1163be,True,0.14,QuixoticAnt,,,,"<div class=""central_stim""></div>",,['stimuli/star.png'],0.0,f,practice,feedback,,,
,html-keyboard-response,24,84043,0.0-3.1-0.1-0.7,5f10222e37592b0f5c021e29,5ee25eaee623063409d1e4a7,5f105d4fef62492e3c1163be,True,0.14,QuixoticAnt,,,,"<h2>Will the cat appear after this screen?</h2><div class=""J_key""><strong>Yes</strong> <br> (press J)</div><div class=""F_key""><strong>No</strong> <br> (press F)</div>",,['stimuli/spade.png'],1.0,j,practice,prepare,,,
,html-keyboard-response,25,84619,0.0-3.1-0.1-1.7,5f10222e37592b0f5c021e29,5ee25eaee623063409d1e4a7,5f105d4fef62492e3c1163be,True,0.14,QuixoticAnt,574.4150000000373,,,"<h2>Will the cat appear after this screen?</h2><div class=""J_key""><strong>Yes</strong> <br> (press J)</div><div class=""F_key""><strong>No</strong> <br> (press F)</div><div class=""central_stim""><img src=""stimuli/spade.png"" width=""30%"" style=""padding:2vmin""></div>",74.0,['stimuli/spade.png'],1.0,j,practice,main,1.0,,
,html-keyboard-response,26,86624,0.0-3.1-0.1-2.7,5f10222e37592b0f5c021e29,5ee25eaee623063409d1e4a7,5f105d4fef62492e3c1163be,True,0.14,QuixoticAnt,,,,"<div class=""central_stim""><img src=""stimuli/cat.png"" class=""cat""></div>",,['stimuli/spade.png'],1.0,j,practice,feedback,,,
,survey-text,27,114817,0.0-4.0,5f10222e37592b0f5c021e29,5ee25eaee623063409d1e4a7,5f105d4fef62492e3c1163be,True,0.14,QuixoticAnt,28186.095000000016,,,,,,,,,,,"{""Q0"":""J when you think a cat will appear, F when you think it will not""}",
,instructions,28,122860,0.0-5.0,5f10222e37592b0f5c021e29,5ee25eaee623063409d1e4a7,5f105d4fef62492e3c1163be,True,0.14,QuixoticAnt,8041.040000000066,,"[{""page_index"":0,""viewing_time"":8040.729999999719}]",,,,,,,,,,
,html-keyboard-response,29,123366,0.0-6.0-0.0,5f10222e37592b0f5c021e29,5ee25eaee623063409d1e4a7,5f105d4fef62492e3c1163be,True,0.14,QuixoticAnt,,,,"<h2>Will the cat appear after this screen?</h2><div class=""J_key""><strong>Yes</strong> <br> (press J)</div><div class=""F_key""><strong>No</strong> <br> (press F)</div><p class=""progress""> [1/32]</br>number of points: 0</p>",,['stimuli/plus.png'],0.0,f,test,prepare,,,E-
,html-keyboard-response,30,125224,0.0-6.0-1.0,5f10222e37592b0f5c021e29,5ee25eaee623063409d1e4a7,5f105d4fef62492e3c1163be,True,0.14,QuixoticAnt,1856.4749999995838,,,"<h2>Will the cat appear after this screen?</h2><div class=""J_key""><strong>Yes</strong> <br> (press J)</div><div class=""F_key""><strong>No</strong> <br> (press F)</div><div class=""central_stim""><img src=""stimuli/plus.png"" width=""30%"" style=""padding:2vmin""></div><p class=""progress""> [1/32]</br>number of points: 0</p>",74.0,['stimuli/plus.png'],0.0,f,test,main,0.0,,E-
,html-keyboard-response,31,127230,0.0-6.0-2.0,5f10222e37592b0f5c021e29,5ee25eaee623063409d1e4a7,5f105d4fef62492e3c1163be,True,0.14,QuixoticAnt,,,,"<div class=""central_stim""></div><p class=""progress""> [1/32]</br>number of points: 0</p>",,['stimuli/plus.png'],0.0,f,test,feedback,,,E-
,html-keyboard-response,32,127735,0.0-6.0-0.1,5f10222e37592b0f5c021e29,5ee25eaee623063409d1e4a7,5f105d4fef62492e3c1163be,True,0.14,QuixoticAnt,,,,"<h2>Will the cat appear after this screen?</h2><div class=""J_key""><strong>Yes</strong> <br> (press J)</div><div class=""F_key""><strong>No</strong> <br> (press F)</div><p class=""progress""> [2/32]</br>number of points: 0</p>",,['stimuli/down_facing.png'],1.0,j,test,prepare,,,C+
,html-keyboard-response,33,128570,0.0-6.0-1.1,5f10222e37592b0f5c021e29,5ee25eaee623063409d1e4a7,5f105d4fef62492e3c1163be,True,0.14,QuixoticAnt,833.5349999997561,,,"<h2>Will the cat appear after this screen?</h2><div class=""J_key""><strong>Yes</strong> <br> (press J)</div><div class=""F_key""><strong>No</strong> <br> (press F)</div><div class=""central_stim""><img src=""stimuli/down_facing.png"" width=""30%"" style=""padding:2vmin""></div><p class=""progress""> [2/32]</br>number of points: 0</p>",70.0,['stimuli/down_facing.png'],1.0,j,test,main,0.0,,C+
,html-keyboard-response,34,130572,0.0-6.0-2.1,5f10222e37592b0f5c021e29,5ee25eaee623063409d1e4a7,5f105d4fef62492e3c1163be,True,0.14,QuixoticAnt,,,,"<div class=""central_stim""><img src=""stimuli/cat.png"" class=""cat""></div><p class=""progress""> [2/32]</br>number of points: 0</p>",,['stimuli/down_facing.png'],1.0,j,test,feedback,,,C+
,html-keyboard-response,35,131079,0.0-6.0-0.2,5f10222e37592b0f5c021e29,5ee25eaee623063409d1e4a7,5f105d4fef62492e3c1163be,True,0.14,QuixoticAnt,,,,"<h2>Will the cat appear after this screen?</h2><div class=""J_key""><strong>Yes</strong> <br> (press J)</div><div class=""F_key""><strong>No</strong> <br> (press F)</div><p class=""progress""> [3/32]</br>number of points: 0</p>",,['stimuli/hexagon.png'],1.0,j,test,prepare,,,B+
,html-keyboard-response,36,131938,0.0-6.0-1.2,5f10222e37592b0f5c021e29,5ee25eaee623063409d1e4a7,5f105d4fef62492e3c1163be,True,0.14,QuixoticAnt,858.1199999998498,,,"<h2>Will the cat appear after this screen?</h2><div class=""J_key""><strong>Yes</strong> <br> (press J)</div><div class=""F_key""><strong>No</strong> <br> (press F)</div><div class=""central_stim""><img src=""stimuli/hexagon.png"" width=""30%"" style=""padding:2vmin""></div><p class=""progress""> [3/32]</br>number of points: 0</p>",74.0,['stimuli/hexagon.png'],1.0,j,test,main,1.0,,B+
,html-keyboard-response,37,133942,0.0-6.0-2.2,5f10222e37592b0f5c021e29,5ee25eaee623063409d1e4a7,5f105d4fef62492e3c1163be,True,0.14,QuixoticAnt,,,,"<div class=""central_stim""><img src=""stimuli/cat.png"" class=""cat""></div><p class=""progress""> [3/32]</br>number of points: 1</p>",,['stimuli/hexagon.png'],1.0,j,test,feedback,,,B+
,html-keyboard-response,38,134446,0.0-6.0-0.3,5f10222e37592b0f5c021e29,5ee25eaee623063409d1e4a7,5f105d4fef62492e3c1163be,True,0.14,QuixoticAnt,,,,"<h2>Will the cat appear after this screen?</h2><div class=""J_key""><strong>Yes</strong> <br> (press J)</div><div class=""F_key""><strong>No</strong> <br> (press F)</div><p class=""progress""> [4/32]</br>number of points: 1</p>",,"['stimuli/diamond.png', 'stimuli/plus.png']",1.0,j,test,prepare,,,EF+
,html-keyboard-response,39,135343,0.0-6.0-1.3,5f10222e37592b0f5c021e29,5ee25eaee623063409d1e4a7,5f105d4fef62492e3c1163be,True,0.14,QuixoticAnt,895.1400000005378,,,"<h2>Will the cat appear after this screen?</h2><div class=""J_key""><strong>Yes</strong> <br> (press J)</div><div class=""F_key""><strong>No</strong> <br> (press F)</div><div class=""central_stim""><img src=""stimuli/diamond.png"" width=""30%"" style=""padding:2vmin"">	<img src=""stimuli/plus.png"" width=""30%"" style=""padding:2vmin""></div><p class=""progress""> [4/32]</br>number of points: 1</p>",70.0,"['stimuli/diamond.png', 'stimuli/plus.png']",1.0,j,test,main,0.0,,EF+
,html-keyboard-response,40,137347,0.0-6.0-2.3,5f10222e37592b0f5c021e29,5ee25eaee623063409d1e4a7,5f105d4fef62492e3c1163be,True,0.14,QuixoticAnt,,,,"<div class=""central_stim""><img src=""stimuli/cat.png"" class=""cat""></div><p class=""progress""> [4/32]</br>number of points: 1</p>",,"['stimuli/diamond.png', 'stimuli/plus.png']",1.0,j,test,feedback,,,EF+
,html-keyboard-response,41,137851,0.0-6.0-0.4,5f10222e37592b0f5c021e29,5ee25eaee623063409d1e4a7,5f105d4fef62492e3c1163be,True,0.14,QuixoticAnt,,,,"<h2>Will the cat appear after this screen?</h2><div class=""J_key""><strong>Yes</strong> <br> (press J)</div><div class=""F_key""><strong>No</strong> <br> (press F)</div><p class=""progress""> [5/32]</br>number of points: 1</p>",,['stimuli/Q.png'],1.0,j,test,prepare,,,Q+
,html-keyboard-response,42,138842,0.0-6.0-1.4,5f10222e37592b0f5c021e29,5ee25eaee623063409d1e4a7,5f105d4fef62492e3c1163be,True,0.14,QuixoticAnt,989.6549999993877,,,"<h2>Will the cat appear after this screen?</h2><div class=""J_key""><strong>Yes</strong> <br> (press J)</div><div class=""F_key""><strong>No</strong> <br> (press F)</div><div class=""central_stim""><img src=""stimuli/Q.png"" width=""30%"" style=""padding:2vmin""></div><p class=""progress""> [5/32]</br>number of points: 1</p>",70.0,['stimuli/Q.png'],1.0,j,test,main,0.0,,Q+
,html-keyboard-response,43,140843,0.0-6.0-2.4,5f10222e37592b0f5c021e29,5ee25eaee623063409d1e4a7,5f105d4fef62492e3c1163be,True,0.14,QuixoticAnt,,,,"<div class=""central_stim""><img src=""stimuli/cat.png"" class=""cat""></div><p class=""progress""> [5/32]</br>number of points: 1</p>",,['stimuli/Q.png'],1.0,j,test,feedback,,,Q+
,html-keyboard-response,44,141350,0.0-6.0-0.5,5f10222e37592b0f5c021e29,5ee25eaee623063409d1e4a7,5f105d4fef62492e3c1163be,True,0.14,QuixoticAnt,,,,"<h2>Will the cat appear after this screen?</h2><div class=""J_key""><strong>Yes</strong> <br> (press J)</div><div class=""F_key""><strong>No</strong> <br> (press F)</div><p class=""progress""> [6/32]</br>number of points: 1</p>",,['stimuli/O.png'],0.0,f,test,prepare,,,O-
,html-keyboard-response,45,142025,0.0-6.0-1.5,5f10222e37592b0f5c021e29,5ee25eaee623063409d1e4a7,5f105d4fef62492e3c1163be,True,0.14,QuixoticAnt,674.4900000003108,,,"<h2>Will the cat appear after this screen?</h2><div class=""J_key""><strong>Yes</strong> <br> (press J)</div><div class=""F_key""><strong>No</strong> <br> (press F)</div><div class=""central_stim""><img src=""stimuli/O.png"" width=""30%"" style=""padding:2vmin""></div><p class=""progress""> [6/32]</br>number of points: 1</p>",74.0,['stimuli/O.png'],0.0,f,test,main,0.0,,O-
,html-keyboard-response,46,144030,0.0-6.0-2.5,5f10222e37592b0f5c021e29,5ee25eaee623063409d1e4a7,5f105d4fef62492e3c1163be,True,0.14,QuixoticAnt,,,,"<div class=""central_stim""></div><p class=""progress""> [6/32]</br>number of points: 1</p>",,['stimuli/O.png'],0.0,f,test,feedback,,,O-
,html-keyboard-response,47,144534,0.0-6.0-0.6,5f10222e37592b0f5c021e29,5ee25eaee623063409d1e4a7,5f105d4fef62492e3c1163be,True,0.14,QuixoticAnt,,,,"<h2>Will the cat appear after this screen?</h2><div class=""J_key""><strong>Yes</strong> <br> (press J)</div><div class=""F_key""><strong>No</strong> <br> (press F)</div><p class=""progress""> [7/32]</br>number of points: 1</p>",,"['stimuli/down_facing.png', 'stimuli/heart.png']",0.0,f,test,prepare,,,CD-
,html-keyboard-response,48,145839,0.0-6.0-1.6,5f10222e37592b0f5c021e29,5ee25eaee623063409d1e4a7,5f105d4fef62492e3c1163be,True,0.14,QuixoticAnt,1302.4150000000955,,,"<h2>Will the cat appear after this screen?</h2><div class=""J_key""><strong>Yes</strong> <br> (press J)</div><div class=""F_key""><strong>No</strong> <br> (press F)</div><div class=""central_stim""><img src=""stimuli/heart.png"" width=""30%"" style=""padding:2vmin"">	<img src=""stimuli/down_facing.png"" width=""30%"" style=""padding:2vmin""></div><p class=""progress""> [7/32]</br>number of points: 1</p>",74.0,"['stimuli/down_facing.png', 'stimuli/heart.png']",0.0,f,test,main,0.0,,CD-
,html-keyboard-response,49,147843,0.0-6.0-2.6,5f10222e37592b0f5c021e29,5ee25eaee623063409d1e4a7,5f105d4fef62492e3c1163be,True,0.14,QuixoticAnt,,,,"<div class=""central_stim""></div><p class=""progress""> [7/32]</br>number of points: 1</p>",,"['stimuli/down_facing.png', 'stimuli/heart.png']",0.0,f,test,feedback,,,CD-
,html-keyboard-response,50,148346,0.0-6.0-0.7,5f10222e37592b0f5c021e29,5ee25eaee623063409d1e4a7,5f105d4fef62492e3c1163be,True,0.14,QuixoticAnt,,,,"<h2>Will the cat appear after this screen?</h2><div class=""J_key""><strong>Yes</strong> <br> (press J)</div><div class=""F_key""><strong>No</strong> <br> (press F)</div><p class=""progress""> [8/32]</br>number of points: 1</p>",,['stimuli/circle.png'],0.0,f,test,prepare,,,A-
,html-keyboard-response,51,149082,0.0-6.0-1.7,5f10222e37592b0f5c021e29,5ee25eaee623063409d1e4a7,5f105d4fef62492e3c1163be,True,0.14,QuixoticAnt,735.0349999997125,,,"<h2>Will the cat appear after this screen?</h2><div class=""J_key""><strong>Yes</strong> <br> (press J)</div><div class=""F_key""><strong>No</strong> <br> (press F)</div><div class=""central_stim""><img src=""stimuli/circle.png"" width=""30%"" style=""padding:2vmin""></div><p class=""progress""> [8/32]</br>number of points: 1</p>",74.0,['stimuli/circle.png'],0.0,f,test,main,0.0,,A-
,html-keyboard-response,52,151087,0.0-6.0-2.7,5f10222e37592b0f5c021e29,5ee25eaee623063409d1e4a7,5f105d4fef62492e3c1163be,True,0.14,QuixoticAnt,,,,"<div class=""central_stim""></div><p class=""progress""> [8/32]</br>number of points: 1</p>",,['stimuli/circle.png'],0.0,f,test,feedback,,,A-
,html-keyboard-response,53,151592,0.0-6.0-0.8,5f10222e37592b0f5c021e29,5ee25eaee623063409d1e4a7,5f105d4fef62492e3c1163be,True,0.14,QuixoticAnt,,,,"<h2>Will the cat appear after this screen?</h2><div class=""J_key""><strong>Yes</strong> <br> (press J)</div><div class=""F_key""><strong>No</strong> <br> (press F)</div><p class=""progress""> [9/32]</br>number of points: 1</p>",,['stimuli/down_facing.png'],1.0,j,test,prepare,,,C+
,html-keyboard-response,54,152550,0.0-6.0-1.8,5f10222e37592b0f5c021e29,5ee25eaee623063409d1e4a7,5f105d4fef62492e3c1163be,True,0.14,QuixoticAnt,956.3500000003842,,,"<h2>Will the cat appear after this screen?</h2><div class=""J_key""><strong>Yes</strong> <br> (press J)</div><div class=""F_key""><strong>No</strong> <br> (press F)</div><div class=""central_stim""><img src=""stimuli/down_facing.png"" width=""30%"" style=""padding:2vmin""></div><p class=""progress""> [9/32]</br>number of points: 1</p>",70.0,['stimuli/down_facing.png'],1.0,j,test,main,0.0,,C+
,html-keyboard-response,55,154555,0.0-6.0-2.8,5f10222e37592b0f5c021e29,5ee25eaee623063409d1e4a7,5f105d4fef62492e3c1163be,True,0.14,QuixoticAnt,,,,"<div class=""central_stim""><img src=""stimuli/cat.png"" class=""cat""></div><p class=""progress""> [9/32]</br>number of points: 1</p>",,['stimuli/down_facing.png'],1.0,j,test,feedback,,,C+
,html-keyboard-response,56,155058,0.0-6.0-0.9,5f10222e37592b0f5c021e29,5ee25eaee623063409d1e4a7,5f105d4fef62492e3c1163be,True,0.14,QuixoticAnt,,,,"<h2>Will the cat appear after this screen?</h2><div class=""J_key""><strong>Yes</strong> <br> (press J)</div><div class=""F_key""><strong>No</strong> <br> (press F)</div><p class=""progress""> [10/32]</br>number of points: 1</p>",,"['stimuli/diamond.png', 'stimuli/plus.png']",1.0,j,test,prepare,,,EF+
,html-keyboard-response,57,155825,0.0-6.0-1.9,5f10222e37592b0f5c021e29,5ee25eaee623063409d1e4a7,5f105d4fef62492e3c1163be,True,0.14,QuixoticAnt,765.9350000003469,,,"<h2>Will the cat appear after this screen?</h2><div class=""J_key""><strong>Yes</strong> <br> (press J)</div><div class=""F_key""><strong>No</strong> <br> (press F)</div><div class=""central_stim""><img src=""stimuli/diamond.png"" width=""30%"" style=""padding:2vmin"">	<img src=""stimuli/plus.png"" width=""30%"" style=""padding:2vmin""></div><p class=""progress""> [10/32]</br>number of points: 1</p>",74.0,"['stimuli/diamond.png', 'stimuli/plus.png']",1.0,j,test,main,1.0,,EF+
,html-keyboard-response,58,157830,0.0-6.0-2.9,5f10222e37592b0f5c021e29,5ee25eaee623063409d1e4a7,5f105d4fef62492e3c1163be,True,0.14,QuixoticAnt,,,,"<div class=""central_stim""><img src=""stimuli/cat.png"" class=""cat""></div><p class=""progress""> [10/32]</br>number of points: 2</p>",,"['stimuli/diamond.png', 'stimuli/plus.png']",1.0,j,test,feedback,,,EF+
,html-keyboard-response,59,158336,0.0-6.0-0.10,5f10222e37592b0f5c021e29,5ee25eaee623063409d1e4a7,5f105d4fef62492e3c1163be,True,0.14,QuixoticAnt,,,,"<h2>Will the cat appear after this screen?</h2><div class=""J_key""><strong>Yes</strong> <br> (press J)</div><div class=""F_key""><strong>No</strong> <br> (press F)</div><p class=""progress""> [11/32]</br>number of points: 2</p>",,['stimuli/Q.png'],1.0,j,test,prepare,,,Q+
,html-keyboard-response,60,159288,0.0-6.0-1.10,5f10222e37592b0f5c021e29,5ee25eaee623063409d1e4a7,5f105d4fef62492e3c1163be,True,0.14,QuixoticAnt,950.3849999991944,,,"<h2>Will the cat appear after this screen?</h2><div class=""J_key""><strong>Yes</strong> <br> (press J)</div><div class=""F_key""><strong>No</strong> <br> (press F)</div><div class=""central_stim""><img src=""stimuli/Q.png"" width=""30%"" style=""padding:2vmin""></div><p class=""progress""> [11/32]</br>number of points: 2</p>",74.0,['stimuli/Q.png'],1.0,j,test,main,1.0,,Q+
,html-keyboard-response,61,161292,0.0-6.0-2.10,5f10222e37592b0f5c021e29,5ee25eaee623063409d1e4a7,5f105d4fef62492e3c1163be,True,0.14,QuixoticAnt,,,,"<div class=""central_stim""><img src=""stimuli/cat.png"" class=""cat""></div><p class=""progress""> [11/32]</br>number of points: 3</p>",,['stimuli/Q.png'],1.0,j,test,feedback,,,Q+
,html-keyboard-response,62,161795,0.0-6.0-0.11,5f10222e37592b0f5c021e29,5ee25eaee623063409d1e4a7,5f105d4fef62492e3c1163be,True,0.14,QuixoticAnt,,,,"<h2>Will the cat appear after this screen?</h2><div class=""J_key""><strong>Yes</strong> <br> (press J)</div><div class=""F_key""><strong>No</strong> <br> (press F)</div><p class=""progress""> [12/32]</br>number of points: 3</p>",,['stimuli/O.png'],0.0,f,test,prepare,,,O-
,html-keyboard-response,63,162570,0.0-6.0-1.11,5f10222e37592b0f5c021e29,5ee25eaee623063409d1e4a7,5f105d4fef62492e3c1163be,True,0.14,QuixoticAnt,773.4700000000885,,,"<h2>Will the cat appear after this screen?</h2><div class=""J_key""><strong>Yes</strong> <br> (press J)</div><div class=""F_key""><strong>No</strong> <br> (press F)</div><div class=""central_stim""><img src=""stimuli/O.png"" width=""30%"" style=""padding:2vmin""></div><p class=""progress""> [12/32]</br>number of points: 3</p>",70.0,['stimuli/O.png'],0.0,f,test,main,1.0,,O-
,html-keyboard-response,64,164573,0.0-6.0-2.11,5f10222e37592b0f5c021e29,5ee25eaee623063409d1e4a7,5f105d4fef62492e3c1163be,True,0.14,QuixoticAnt,,,,"<div class=""central_stim""></div><p class=""progress""> [12/32]</br>number of points: 4</p>",,['stimuli/O.png'],0.0,f,test,feedback,,,O-
,html-keyboard-response,65,165075,0.0-6.0-0.12,5f10222e37592b0f5c021e29,5ee25eaee623063409d1e4a7,5f105d4fef62492e3c1163be,True,0.14,QuixoticAnt,,,,"<h2>Will the cat appear after this screen?</h2><div class=""J_key""><strong>Yes</strong> <br> (press J)</div><div class=""F_key""><strong>No</strong> <br> (press F)</div><p class=""progress""> [13/32]</br>number of points: 4</p>",,['stimuli/plus.png'],0.0,f,test,prepare,,,E-
,html-keyboard-response,66,166047,0.0-6.0-1.12,5f10222e37592b0f5c021e29,5ee25eaee623063409d1e4a7,5f105d4fef62492e3c1163be,True,0.14,QuixoticAnt,969.9800000007672,,,"<h2>Will the cat appear after this screen?</h2><div class=""J_key""><strong>Yes</strong> <br> (press J)</div><div class=""F_key""><strong>No</strong> <br> (press F)</div><div class=""central_stim""><img src=""stimuli/plus.png"" width=""30%"" style=""padding:2vmin""></div><p class=""progress""> [13/32]</br>number of points: 4</p>",74.0,['stimuli/plus.png'],0.0,f,test,main,0.0,,E-
,html-keyboard-response,67,168049,0.0-6.0-2.12,5f10222e37592b0f5c021e29,5ee25eaee623063409d1e4a7,5f105d4fef62492e3c1163be,True,0.14,QuixoticAnt,,,,"<div class=""central_stim""></div><p class=""progress""> [13/32]</br>number of points: 4</p>",,['stimuli/plus.png'],0.0,f,test,feedback,,,E-
,html-keyboard-response,68,168555,0.0-6.0-0.13,5f10222e37592b0f5c021e29,5ee25eaee623063409d1e4a7,5f105d4fef62492e3c1163be,True,0.14,QuixoticAnt,,,,"<h2>Will the cat appear after this screen?</h2><div class=""J_key""><strong>Yes</strong> <br> (press J)</div><div class=""F_key""><strong>No</strong> <br> (press F)</div><p class=""progress""> [14/32]</br>number of points: 4</p>",,['stimuli/circle.png'],0.0,f,test,prepare,,,A-
,html-keyboard-response,69,169298,0.0-6.0-1.13,5f10222e37592b0f5c021e29,5ee25eaee623063409d1e4a7,5f105d4fef62492e3c1163be,True,0.14,QuixoticAnt,741.6149999999034,,,"<h2>Will the cat appear after this screen?</h2><div class=""J_key""><strong>Yes</strong> <br> (press J)</div><div class=""F_key""><strong>No</strong> <br> (press F)</div><div class=""central_stim""><img src=""stimuli/circle.png"" width=""30%"" style=""padding:2vmin""></div><p class=""progress""> [14/32]</br>number of points: 4</p>",74.0,['stimuli/circle.png'],0.0,f,test,main,0.0,,A-
,html-keyboard-response,70,171300,0.0-6.0-2.13,5f10222e37592b0f5c021e29,5ee25eaee623063409d1e4a7,5f105d4fef62492e3c1163be,True,0.14,QuixoticAnt,,,,"<div class=""central_stim""></div><p class=""progress""> [14/32]</br>number of points: 4</p>",,['stimuli/circle.png'],0.0,f,test,feedback,,,A-
,html-keyboard-response,71,171805,0.0-6.0-0.14,5f10222e37592b0f5c021e29,5ee25eaee623063409d1e4a7,5f105d4fef62492e3c1163be,True,0.14,QuixoticAnt,,,,"<h2>Will the cat appear after this screen?</h2><div class=""J_key""><strong>Yes</strong> <br> (press J)</div><div class=""F_key""><strong>No</strong> <br> (press F)</div><p class=""progress""> [15/32]</br>number of points: 4</p>",,['stimuli/hexagon.png'],1.0,j,test,prepare,,,B+
,html-keyboard-response,72,172562,0.0-6.0-1.14,5f10222e37592b0f5c021e29,5ee25eaee623063409d1e4a7,5f105d4fef62492e3c1163be,True,0.14,QuixoticAnt,755.395000000135,,,"<h2>Will the cat appear after this screen?</h2><div class=""J_key""><strong>Yes</strong> <br> (press J)</div><div class=""F_key""><strong>No</strong> <br> (press F)</div><div class=""central_stim""><img src=""stimuli/hexagon.png"" width=""30%"" style=""padding:2vmin""></div><p class=""progress""> [15/32]</br>number of points: 4</p>",74.0,['stimuli/hexagon.png'],1.0,j,test,main,1.0,,B+
,html-keyboard-response,73,174568,0.0-6.0-2.14,5f10222e37592b0f5c021e29,5ee25eaee623063409d1e4a7,5f105d4fef62492e3c1163be,True,0.14,QuixoticAnt,,,,"<div class=""central_stim""><img src=""stimuli/cat.png"" class=""cat""></div><p class=""progress""> [15/32]</br>number of points: 5</p>",,['stimuli/hexagon.png'],1.0,j,test,feedback,,,B+
,html-keyboard-response,74,175073,0.0-6.0-0.15,5f10222e37592b0f5c021e29,5ee25eaee623063409d1e4a7,5f105d4fef62492e3c1163be,True,0.14,QuixoticAnt,,,,"<h2>Will the cat appear after this screen?</h2><div class=""J_key""><strong>Yes</strong> <br> (press J)</div><div class=""F_key""><strong>No</strong> <br> (press F)</div><p class=""progress""> [16/32]</br>number of points: 5</p>",,"['stimuli/down_facing.png', 'stimuli/heart.png']",0.0,f,test,prepare,,,CD-
,html-keyboard-response,75,175831,0.0-6.0-1.15,5f10222e37592b0f5c021e29,5ee25eaee623063409d1e4a7,5f105d4fef62492e3c1163be,True,0.14,QuixoticAnt,755.9750000000349,,,"<h2>Will the cat appear after this screen?</h2><div class=""J_key""><strong>Yes</strong> <br> (press J)</div><div class=""F_key""><strong>No</strong> <br> (press F)</div><div class=""central_stim""><img src=""stimuli/down_facing.png"" width=""30%"" style=""padding:2vmin"">	<img src=""stimuli/heart.png"" width=""30%"" style=""padding:2vmin""></div><p class=""progress""> [16/32]</br>number of points: 5</p>",74.0,"['stimuli/down_facing.png', 'stimuli/heart.png']",0.0,f,test,main,0.0,,CD-
,html-keyboard-response,76,177835,0.0-6.0-2.15,5f10222e37592b0f5c021e29,5ee25eaee623063409d1e4a7,5f105d4fef62492e3c1163be,True,0.14,QuixoticAnt,,,,"<div class=""central_stim""></div><p class=""progress""> [16/32]</br>number of points: 5</p>",,"['stimuli/down_facing.png', 'stimuli/heart.png']",0.0,f,test,feedback,,,CD-
,instructions,77,180496,0.0-7.0,5f10222e37592b0f5c021e29,5ee25eaee623063409d1e4a7,5f105d4fef62492e3c1163be,True,0.14,QuixoticAnt,2660.460000000079,,"[{""page_index"":0,""viewing_time"":2659.9849999993457}]",,,,,,,,,,
,html-keyboard-response,78,180998,0.0-8.0-0.0,5f10222e37592b0f5c021e29,5ee25eaee623063409d1e4a7,5f105d4fef62492e3c1163be,True,0.14,QuixoticAnt,,,,"<h2>Will the cat appear after this screen?</h2><div class=""J_key""><strong>Yes</strong> <br> (press J)</div><div class=""F_key""><strong>No</strong> <br> (press F)</div><p class=""progress""> [17/32]</br>number of points: 5</p>",,"['stimuli/diamond.png', 'stimuli/plus.png']",1.0,j,test,prepare,,,EF+
,html-keyboard-response,79,181931,0.0-8.0-1.0,5f10222e37592b0f5c021e29,5ee25eaee623063409d1e4a7,5f105d4fef62492e3c1163be,True,0.14,QuixoticAnt,931.0700000005309,,,"<h2>Will the cat appear after this screen?</h2><div class=""J_key""><strong>Yes</strong> <br> (press J)</div><div class=""F_key""><strong>No</strong> <br> (press F)</div><div class=""central_stim""><img src=""stimuli/diamond.png"" width=""30%"" style=""padding:2vmin"">	<img src=""stimuli/plus.png"" width=""30%"" style=""padding:2vmin""></div><p class=""progress""> [17/32]</br>number of points: 5</p>",74.0,"['stimuli/diamond.png', 'stimuli/plus.png']",1.0,j,test,main,1.0,,EF+
,html-keyboard-response,80,183938,0.0-8.0-2.0,5f10222e37592b0f5c021e29,5ee25eaee623063409d1e4a7,5f105d4fef62492e3c1163be,True,0.14,QuixoticAnt,,,,"<div class=""central_stim""><img src=""stimuli/cat.png"" class=""cat""></div><p class=""progress""> [17/32]</br>number of points: 6</p>",,"['stimuli/diamond.png', 'stimuli/plus.png']",1.0,j,test,feedback,,,EF+
,html-keyboard-response,81,184442,0.0-8.0-0.1,5f10222e37592b0f5c021e29,5ee25eaee623063409d1e4a7,5f105d4fef62492e3c1163be,True,0.14,QuixoticAnt,,,,"<h2>Will the cat appear after this screen?</h2><div class=""J_key""><strong>Yes</strong> <br> (press J)</div><div class=""F_key""><strong>No</strong> <br> (press F)</div><p class=""progress""> [18/32]</br>number of points: 6</p>",,"['stimuli/down_facing.png', 'stimuli/heart.png']",0.0,f,test,prepare,,,CD-
,html-keyboard-response,82,185782,0.0-8.0-1.1,5f10222e37592b0f5c021e29,5ee25eaee623063409d1e4a7,5f105d4fef62492e3c1163be,True,0.14,QuixoticAnt,1337.660000000149,,,"<h2>Will the cat appear after this screen?</h2><div class=""J_key""><strong>Yes</strong> <br> (press J)</div><div class=""F_key""><strong>No</strong> <br> (press F)</div><div class=""central_stim""><img src=""stimuli/down_facing.png"" width=""30%"" style=""padding:2vmin"">	<img src=""stimuli/heart.png"" width=""30%"" style=""padding:2vmin""></div><p class=""progress""> [18/32]</br>number of points: 6</p>",70.0,"['stimuli/down_facing.png', 'stimuli/heart.png']",0.0,f,test,main,1.0,,CD-
,html-keyboard-response,83,187784,0.0-8.0-2.1,5f10222e37592b0f5c021e29,5ee25eaee623063409d1e4a7,5f105d4fef62492e3c1163be,True,0.14,QuixoticAnt,,,,"<div class=""central_stim""></div><p class=""progress""> [18/32]</br>number of points: 7</p>",,"['stimuli/down_facing.png', 'stimuli/heart.png']",0.0,f,test,feedback,,,CD-
,html-keyboard-response,84,188287,0.0-8.0-0.2,5f10222e37592b0f5c021e29,5ee25eaee623063409d1e4a7,5f105d4fef62492e3c1163be,True,0.14,QuixoticAnt,,,,"<h2>Will the cat appear after this screen?</h2><div class=""J_key""><strong>Yes</strong> <br> (press J)</div><div class=""F_key""><strong>No</strong> <br> (press F)</div><p class=""progress""> [19/32]</br>number of points: 7</p>",,['stimuli/O.png'],0.0,f,test,prepare,,,O-
,html-keyboard-response,85,189388,0.0-8.0-1.2,5f10222e37592b0f5c021e29,5ee25eaee623063409d1e4a7,5f105d4fef62492e3c1163be,True,0.14,QuixoticAnt,1098.7699999996112,,,"<h2>Will the cat appear after this screen?</h2><div class=""J_key""><strong>Yes</strong> <br> (press J)</div><div class=""F_key""><strong>No</strong> <br> (press F)</div><div class=""central_stim""><img src=""stimuli/O.png"" width=""30%"" style=""padding:2vmin""></div><p class=""progress""> [19/32]</br>number of points: 7</p>",70.0,['stimuli/O.png'],0.0,f,test,main,1.0,,O-
,html-keyboard-response,86,191393,0.0-8.0-2.2,5f10222e37592b0f5c021e29,5ee25eaee623063409d1e4a7,5f105d4fef62492e3c1163be,True,0.14,QuixoticAnt,,,,"<div class=""central_stim""></div><p class=""progress""> [19/32]</br>number of points: 8</p>",,['stimuli/O.png'],0.0,f,test,feedback,,,O-
,html-keyboard-response,87,191897,0.0-8.0-0.3,5f10222e37592b0f5c021e29,5ee25eaee623063409d1e4a7,5f105d4fef62492e3c1163be,True,0.14,QuixoticAnt,,,,"<h2>Will the cat appear after this screen?</h2><div class=""J_key""><strong>Yes</strong> <br> (press J)</div><div class=""F_key""><strong>No</strong> <br> (press F)</div><p class=""progress""> [20/32]</br>number of points: 8</p>",,['stimuli/plus.png'],0.0,f,test,prepare,,,E-
,html-keyboard-response,88,193407,0.0-8.0-1.3,5f10222e37592b0f5c021e29,5ee25eaee623063409d1e4a7,5f105d4fef62492e3c1163be,True,0.14,QuixoticAnt,1508.1650000001828,,,"<h2>Will the cat appear after this screen?</h2><div class=""J_key""><strong>Yes</strong> <br> (press J)</div><div class=""F_key""><strong>No</strong> <br> (press F)</div><div class=""central_stim""><img src=""stimuli/plus.png"" width=""30%"" style=""padding:2vmin""></div><p class=""progress""> [20/32]</br>number of points: 8</p>",74.0,['stimuli/plus.png'],0.0,f,test,main,0.0,,E-
,html-keyboard-response,89,195412,0.0-8.0-2.3,5f10222e37592b0f5c021e29,5ee25eaee623063409d1e4a7,5f105d4fef62492e3c1163be,True,0.14,QuixoticAnt,,,,"<div class=""central_stim""></div><p class=""progress""> [20/32]</br>number of points: 8</p>",,['stimuli/plus.png'],0.0,f,test,feedback,,,E-
,html-keyboard-response,90,195917,0.0-8.0-0.4,5f10222e37592b0f5c021e29,5ee25eaee623063409d1e4a7,5f105d4fef62492e3c1163be,True,0.14,QuixoticAnt,,,,"<h2>Will the cat appear after this screen?</h2><div class=""J_key""><strong>Yes</strong> <br> (press J)</div><div class=""F_key""><strong>No</strong> <br> (press F)</div><p class=""progress""> [21/32]</br>number of points: 8</p>",,['stimuli/hexagon.png'],1.0,j,test,prepare,,,B+
,html-keyboard-response,91,197778,0.0-8.0-1.4,5f10222e37592b0f5c021e29,5ee25eaee623063409d1e4a7,5f105d4fef62492e3c1163be,True,0.14,QuixoticAnt,1858.8349999999919,,,"<h2>Will the cat appear after this screen?</h2><div class=""J_key""><strong>Yes</strong> <br> (press J)</div><div class=""F_key""><strong>No</strong> <br> (press F)</div><div class=""central_stim""><img src=""stimuli/hexagon.png"" width=""30%"" style=""padding:2vmin""></div><p class=""progress""> [21/32]</br>number of points: 8</p>",70.0,['stimuli/hexagon.png'],1.0,j,test,main,0.0,,B+
,html-keyboard-response,92,199779,0.0-8.0-2.4,5f10222e37592b0f5c021e29,5ee25eaee623063409d1e4a7,5f105d4fef62492e3c1163be,True,0.14,QuixoticAnt,,,,"<div class=""central_stim""><img src=""stimuli/cat.png"" class=""cat""></div><p class=""progress""> [21/32]</br>number of points: 8</p>",,['stimuli/hexagon.png'],1.0,j,test,feedback,,,B+
,html-keyboard-response,93,200285,0.0-8.0-0.5,5f10222e37592b0f5c021e29,5ee25eaee623063409d1e4a7,5f105d4fef62492e3c1163be,True,0.14,QuixoticAnt,,,,"<h2>Will the cat appear after this screen?</h2><div class=""J_key""><strong>Yes</strong> <br> (press J)</div><div class=""F_key""><strong>No</strong> <br> (press F)</div><p class=""progress""> [22/32]</br>number of points: 8</p>",,['stimuli/down_facing.png'],1.0,j,test,prepare,,,C+
,html-keyboard-response,94,202046,0.0-8.0-1.5,5f10222e37592b0f5c021e29,5ee25eaee623063409d1e4a7,5f105d4fef62492e3c1163be,True,0.14,QuixoticAnt,1759.8849999994854,,,"<h2>Will the cat appear after this screen?</h2><div class=""J_key""><strong>Yes</strong> <br> (press J)</div><div class=""F_key""><strong>No</strong> <br> (press F)</div><div class=""central_stim""><img src=""stimuli/down_facing.png"" width=""30%"" style=""padding:2vmin""></div><p class=""progress""> [22/32]</br>number of points: 8</p>",70.0,['stimuli/down_facing.png'],1.0,j,test,main,0.0,,C+
,html-keyboard-response,95,204051,0.0-8.0-2.5,5f10222e37592b0f5c021e29,5ee25eaee623063409d1e4a7,5f105d4fef62492e3c1163be,True,0.14,QuixoticAnt,,,,"<div class=""central_stim""><img src=""stimuli/cat.png"" class=""cat""></div><p class=""progress""> [22/32]</br>number of points: 8</p>",,['stimuli/down_facing.png'],1.0,j,test,feedback,,,C+
,html-keyboard-response,96,204555,0.0-8.0-0.6,5f10222e37592b0f5c021e29,5ee25eaee623063409d1e4a7,5f105d4fef62492e3c1163be,True,0.14,QuixoticAnt,,,,"<h2>Will the cat appear after this screen?</h2><div class=""J_key""><strong>Yes</strong> <br> (press J)</div><div class=""F_key""><strong>No</strong> <br> (press F)</div><p class=""progress""> [23/32]</br>number of points: 8</p>",,['stimuli/Q.png'],1.0,j,test,prepare,,,Q+
,html-keyboard-response,97,205273,0.0-8.0-1.6,5f10222e37592b0f5c021e29,5ee25eaee623063409d1e4a7,5f105d4fef62492e3c1163be,True,0.14,QuixoticAnt,715.8200000003562,,,"<h2>Will the cat appear after this screen?</h2><div class=""J_key""><strong>Yes</strong> <br> (press J)</div><div class=""F_key""><strong>No</strong> <br> (press F)</div><div class=""central_stim""><img src=""stimuli/Q.png"" width=""30%"" style=""padding:2vmin""></div><p class=""progress""> [23/32]</br>number of points: 8</p>",74.0,['stimuli/Q.png'],1.0,j,test,main,1.0,,Q+
,html-keyboard-response,98,207279,0.0-8.0-2.6,5f10222e37592b0f5c021e29,5ee25eaee623063409d1e4a7,5f105d4fef62492e3c1163be,True,0.14,QuixoticAnt,,,,"<div class=""central_stim""><img src=""stimuli/cat.png"" class=""cat""></div><p class=""progress""> [23/32]</br>number of points: 9</p>",,['stimuli/Q.png'],1.0,j,test,feedback,,,Q+
,html-keyboard-response,99,207781,0.0-8.0-0.7,5f10222e37592b0f5c021e29,5ee25eaee623063409d1e4a7,5f105d4fef62492e3c1163be,True,0.14,QuixoticAnt,,,,"<h2>Will the cat appear after this screen?</h2><div class=""J_key""><strong>Yes</strong> <br> (press J)</div><div class=""F_key""><strong>No</strong> <br> (press F)</div><p class=""progress""> [24/32]</br>number of points: 9</p>",,['stimuli/circle.png'],0.0,f,test,prepare,,,A-
,html-keyboard-response,100,208756,0.0-8.0-1.7,5f10222e37592b0f5c021e29,5ee25eaee623063409d1e4a7,5f105d4fef62492e3c1163be,True,0.14,QuixoticAnt,973.5050000008487,,,"<h2>Will the cat appear after this screen?</h2><div class=""J_key""><strong>Yes</strong> <br> (press J)</div><div class=""F_key""><strong>No</strong> <br> (press F)</div><div class=""central_stim""><img src=""stimuli/circle.png"" width=""30%"" style=""padding:2vmin""></div><p class=""progress""> [24/32]</br>number of points: 9</p>",70.0,['stimuli/circle.png'],0.0,f,test,main,1.0,,A-
,html-keyboard-response,101,210761,0.0-8.0-2.7,5f10222e37592b0f5c021e29,5ee25eaee623063409d1e4a7,5f105d4fef62492e3c1163be,True,0.14,QuixoticAnt,,,,"<div class=""central_stim""></div><p class=""progress""> [24/32]</br>number of points: 10</p>",,['stimuli/circle.png'],0.0,f,test,feedback,,,A-
,html-keyboard-response,102,211267,0.0-8.0-0.8,5f10222e37592b0f5c021e29,5ee25eaee623063409d1e4a7,5f105d4fef62492e3c1163be,True,0.14,QuixoticAnt,,,,"<h2>Will the cat appear after this screen?</h2><div class=""J_key""><strong>Yes</strong> <br> (press J)</div><div class=""F_key""><strong>No</strong> <br> (press F)</div><p class=""progress""> [25/32]</br>number of points: 10</p>",,['stimuli/down_facing.png'],1.0,j,test,prepare,,,C+
,html-keyboard-response,103,213225,0.0-8.0-1.8,5f10222e37592b0f5c021e29,5ee25eaee623063409d1e4a7,5f105d4fef62492e3c1163be,True,0.14,QuixoticAnt,1956.5000000002328,,,"<h2>Will the cat appear after this screen?</h2><div class=""J_key""><strong>Yes</strong> <br> (press J)</div><div class=""F_key""><strong>No</strong> <br> (press F)</div><div class=""central_stim""><img src=""stimuli/down_facing.png"" width=""30%"" style=""padding:2vmin""></div><p class=""progress""> [25/32]</br>number of points: 10</p>",70.0,['stimuli/down_facing.png'],1.0,j,test,main,0.0,,C+
,html-keyboard-response,104,215230,0.0-8.0-2.8,5f10222e37592b0f5c021e29,5ee25eaee623063409d1e4a7,5f105d4fef62492e3c1163be,True,0.14,QuixoticAnt,,,,"<div class=""central_stim""><img src=""stimuli/cat.png"" class=""cat""></div><p class=""progress""> [25/32]</br>number of points: 10</p>",,['stimuli/down_facing.png'],1.0,j,test,feedback,,,C+
,html-keyboard-response,105,215735,0.0-8.0-0.9,5f10222e37592b0f5c021e29,5ee25eaee623063409d1e4a7,5f105d4fef62492e3c1163be,True,0.14,QuixoticAnt,,,,"<h2>Will the cat appear after this screen?</h2><div class=""J_key""><strong>Yes</strong> <br> (press J)</div><div class=""F_key""><strong>No</strong> <br> (press F)</div><p class=""progress""> [26/32]</br>number of points: 10</p>",,"['stimuli/diamond.png', 'stimuli/plus.png']",1.0,j,test,prepare,,,EF+
,html-keyboard-response,106,216719,0.0-8.0-1.9,5f10222e37592b0f5c021e29,5ee25eaee623063409d1e4a7,5f105d4fef62492e3c1163be,True,0.14,QuixoticAnt,982.0099999997183,,,"<h2>Will the cat appear after this screen?</h2><div class=""J_key""><strong>Yes</strong> <br> (press J)</div><div class=""F_key""><strong>No</strong> <br> (press F)</div><div class=""central_stim""><img src=""stimuli/diamond.png"" width=""30%"" style=""padding:2vmin"">	<img src=""stimuli/plus.png"" width=""30%"" style=""padding:2vmin""></div><p class=""progress""> [26/32]</br>number of points: 10</p>",74.0,"['stimuli/diamond.png', 'stimuli/plus.png']",1.0,j,test,main,1.0,,EF+
,html-keyboard-response,107,218724,0.0-8.0-2.9,5f10222e37592b0f5c021e29,5ee25eaee623063409d1e4a7,5f105d4fef62492e3c1163be,True,0.14,QuixoticAnt,,,,"<div class=""central_stim""><img src=""stimuli/cat.png"" class=""cat""></div><p class=""progress""> [26/32]</br>number of points: 11</p>",,"['stimuli/diamond.png', 'stimuli/plus.png']",1.0,j,test,feedback,,,EF+
,html-keyboard-response,108,219226,0.0-8.0-0.10,5f10222e37592b0f5c021e29,5ee25eaee623063409d1e4a7,5f105d4fef62492e3c1163be,True,0.14,QuixoticAnt,,,,"<h2>Will the cat appear after this screen?</h2><div class=""J_key""><strong>Yes</strong> <br> (press J)</div><div class=""F_key""><strong>No</strong> <br> (press F)</div><p class=""progress""> [27/32]</br>number of points: 11</p>",,['stimuli/O.png'],0.0,f,test,prepare,,,O-
,html-keyboard-response,109,221230,0.0-8.0-1.10,5f10222e37592b0f5c021e29,5ee25eaee623063409d1e4a7,5f105d4fef62492e3c1163be,True,0.14,QuixoticAnt,,,,"<h2>Will the cat appear after this screen?</h2><div class=""J_key""><strong>Yes</strong> <br> (press J)</div><div class=""F_key""><strong>No</strong> <br> (press F)</div><div class=""central_stim""><img src=""stimuli/O.png"" width=""30%"" style=""padding:2vmin""></div><p class=""progress""> [27/32]</br>number of points: 11</p>",,['stimuli/O.png'],0.0,f,test,main,,,O-
,html-keyboard-response,110,223234,0.0-8.0-2.10,5f10222e37592b0f5c021e29,5ee25eaee623063409d1e4a7,5f105d4fef62492e3c1163be,True,0.14,QuixoticAnt,,,,"<div class=""central_stim""></div><p class=""progress""> [27/32]</br>number of points: 11</p>",,['stimuli/O.png'],0.0,f,test,feedback,,,O-
,html-keyboard-response,111,223741,0.0-8.0-0.11,5f10222e37592b0f5c021e29,5ee25eaee623063409d1e4a7,5f105d4fef62492e3c1163be,True,0.14,QuixoticAnt,,,,"<h2>Will the cat appear after this screen?</h2><div class=""J_key""><strong>Yes</strong> <br> (press J)</div><div class=""F_key""><strong>No</strong> <br> (press F)</div><p class=""progress""> [28/32]</br>number of points: 11</p>",,['stimuli/Q.png'],1.0,j,test,prepare,,,Q+
,html-keyboard-response,112,224445,0.0-8.0-1.11,5f10222e37592b0f5c021e29,5ee25eaee623063409d1e4a7,5f105d4fef62492e3c1163be,True,0.14,QuixoticAnt,703.1300000007905,,,"<h2>Will the cat appear after this screen?</h2><div class=""J_key""><strong>Yes</strong> <br> (press J)</div><div class=""F_key""><strong>No</strong> <br> (press F)</div><div class=""central_stim""><img src=""stimuli/Q.png"" width=""30%"" style=""padding:2vmin""></div><p class=""progress""> [28/32]</br>number of points: 11</p>",74.0,['stimuli/Q.png'],1.0,j,test,main,1.0,,Q+
