success,trial_type,trial_index,time_elapsed,internal_node_id,protocol_sum,subject_identifier,subject_sum,STUDY_ID,PROLIFIC_PID,SESSION_ID,bonus,nickname,rt,url,set_size,change,addition,RT,response,jitter,correct_response,test_part,correct,stimulus,key_press,responses
1.0,fullscreen,0,6620,0.0-0.0,f078aa2862041786868ef9f2ad23336df49386eb98fe8259951830bdf7c3dbfd,5dac7eaa59f37100128372d5,"[101, 89, 8, 93, 102, 9, 98, 144, 66, 25, 26, 247, 101, 15, 154, 42, 5, 222, 30, 173, 72, 145, 45, 73, 105, 4, 173, 48, 219, 68, 13, 113]",5f183ba2066b9c11e73f0302,5dac7eaa59f37100128372d5,5f1958b2a1a99a00081b0184,0.25,lentil,,,,,,,,,,,,,,
,external-html,1,22515,0.0-1.0,f078aa2862041786868ef9f2ad23336df49386eb98fe8259951830bdf7c3dbfd,5dac7eaa59f37100128372d5,"[101, 89, 8, 93, 102, 9, 98, 144, 66, 25, 26, 247, 101, 15, 154, 42, 5, 222, 30, 173, 72, 145, 45, 73, 105, 4, 173, 48, 219, 68, 13, 113]",5f183ba2066b9c11e73f0302,5dac7eaa59f37100128372d5,5f1958b2a1a99a00081b0184,0.25,lentil,15873.045000014827,nickname.html,,,,,,,,,,,,
,p5Text,2,28021,0.0-2.0,f078aa2862041786868ef9f2ad23336df49386eb98fe8259951830bdf7c3dbfd,5dac7eaa59f37100128372d5,"[101, 89, 8, 93, 102, 9, 98, 144, 66, 25, 26, 247, 101, 15, 154, 42, 5, 222, 30, 173, 72, 145, 45, 73, 105, 4, 173, 48, 219, 68, 13, 113]",5f183ba2066b9c11e73f0302,5dac7eaa59f37100128372d5,5f1958b2a1a99a00081b0184,0.25,lentil,,,,,,,,,,,,,,
,p5Text,3,44857,0.0-3.0-0.0,f078aa2862041786868ef9f2ad23336df49386eb98fe8259951830bdf7c3dbfd,5dac7eaa59f37100128372d5,"[101, 89, 8, 93, 102, 9, 98, 144, 66, 25, 26, 247, 101, 15, 154, 42, 5, 222, 30, 173, 72, 145, 45, 73, 105, 4, 173, 48, 219, 68, 13, 113]",5f183ba2066b9c11e73f0302,5dac7eaa59f37100128372d5,5f1958b2a1a99a00081b0184,0.25,lentil,,,,,,,,,,,,,,
,p5cd_ad,4,49996,0.0-3.0-1.0-0.0,f078aa2862041786868ef9f2ad23336df49386eb98fe8259951830bdf7c3dbfd,5dac7eaa59f37100128372d5,"[101, 89, 8, 93, 102, 9, 98, 144, 66, 25, 26, 247, 101, 15, 154, 42, 5, 222, 30, 173, 72, 145, 45, 73, 105, 4, 173, 48, 219, 68, 13, 113]",5f183ba2066b9c11e73f0302,5dac7eaa59f37100128372d5,5f1958b2a1a99a00081b0184,0.25,lentil,,,3.0,1.0,1.0,3233.8552710716613,f,391.32472896017134,j,practice,0.0,,,
,html-keyboard-response,5,51501,0.0-3.0-1.0-1.0,f078aa2862041786868ef9f2ad23336df49386eb98fe8259951830bdf7c3dbfd,5dac7eaa59f37100128372d5,"[101, 89, 8, 93, 102, 9, 98, 144, 66, 25, 26, 247, 101, 15, 154, 42, 5, 222, 30, 173, 72, 145, 45, 73, 105, 4, 173, 48, 219, 68, 13, 113]",5f183ba2066b9c11e73f0302,5dac7eaa59f37100128372d5,5f1958b2a1a99a00081b0184,0.25,lentil,,,,,,,,,,,,"<div style=""width:150px;height:56px;border:0px;font-size:30px;text-align:center"">wrong.</div>",,
,p5cd_ad,6,55680,0.0-3.0-1.0-0.1,f078aa2862041786868ef9f2ad23336df49386eb98fe8259951830bdf7c3dbfd,5dac7eaa59f37100128372d5,"[101, 89, 8, 93, 102, 9, 98, 144, 66, 25, 26, 247, 101, 15, 154, 42, 5, 222, 30, 173, 72, 145, 45, 73, 105, 4, 173, 48, 219, 68, 13, 113]",5f183ba2066b9c11e73f0302,5dac7eaa59f37100128372d5,5f1958b2a1a99a00081b0184,0.25,lentil,,,3.0,0.0,1.0,2550.589607330039,f,112.87539266049862,f,practice,1.0,,,
,html-keyboard-response,7,56682,0.0-3.0-1.0-1.1,f078aa2862041786868ef9f2ad23336df49386eb98fe8259951830bdf7c3dbfd,5dac7eaa59f37100128372d5,"[101, 89, 8, 93, 102, 9, 98, 144, 66, 25, 26, 247, 101, 15, 154, 42, 5, 222, 30, 173, 72, 145, 45, 73, 105, 4, 173, 48, 219, 68, 13, 113]",5f183ba2066b9c11e73f0302,5dac7eaa59f37100128372d5,5f1958b2a1a99a00081b0184,0.25,lentil,,,,,,,,,,,,"<div style=""width:150px;height:56px;font-size:30px;text-align:center;"">correct!</div>",,
,p5cd_ad,8,60430,0.0-3.0-1.0-0.2,f078aa2862041786868ef9f2ad23336df49386eb98fe8259951830bdf7c3dbfd,5dac7eaa59f37100128372d5,"[101, 89, 8, 93, 102, 9, 98, 144, 66, 25, 26, 247, 101, 15, 154, 42, 5, 222, 30, 173, 72, 145, 45, 73, 105, 4, 173, 48, 219, 68, 13, 113]",5f183ba2066b9c11e73f0302,5dac7eaa59f37100128372d5,5f1958b2a1a99a00081b0184,0.25,lentil,,,3.0,0.0,0.0,2195.6953963963315,f,35.23960360325873,f,practice,1.0,,,
,html-keyboard-response,9,61432,0.0-3.0-1.0-1.2,f078aa2862041786868ef9f2ad23336df49386eb98fe8259951830bdf7c3dbfd,5dac7eaa59f37100128372d5,"[101, 89, 8, 93, 102, 9, 98, 144, 66, 25, 26, 247, 101, 15, 154, 42, 5, 222, 30, 173, 72, 145, 45, 73, 105, 4, 173, 48, 219, 68, 13, 113]",5f183ba2066b9c11e73f0302,5dac7eaa59f37100128372d5,5f1958b2a1a99a00081b0184,0.25,lentil,,,,,,,,,,,,"<div style=""width:150px;height:56px;font-size:30px;text-align:center;"">correct!</div>",,
,p5cd_ad,10,64780,0.0-3.0-1.0-0.3,f078aa2862041786868ef9f2ad23336df49386eb98fe8259951830bdf7c3dbfd,5dac7eaa59f37100128372d5,"[101, 89, 8, 93, 102, 9, 98, 144, 66, 25, 26, 247, 101, 15, 154, 42, 5, 222, 30, 173, 72, 145, 45, 73, 105, 4, 173, 48, 219, 68, 13, 113]",5f183ba2066b9c11e73f0302,5dac7eaa59f37100128372d5,5f1958b2a1a99a00081b0184,0.25,lentil,,,3.0,1.0,0.0,1507.1015144349076,j,331.5034855622798,j,practice,1.0,,,
,html-keyboard-response,11,65783,0.0-3.0-1.0-1.3,f078aa2862041786868ef9f2ad23336df49386eb98fe8259951830bdf7c3dbfd,5dac7eaa59f37100128372d5,"[101, 89, 8, 93, 102, 9, 98, 144, 66, 25, 26, 247, 101, 15, 154, 42, 5, 222, 30, 173, 72, 145, 45, 73, 105, 4, 173, 48, 219, 68, 13, 113]",5f183ba2066b9c11e73f0302,5dac7eaa59f37100128372d5,5f1958b2a1a99a00081b0184,0.25,lentil,,,,,,,,,,,,"<div style=""width:150px;height:56px;font-size:30px;text-align:center;"">correct!</div>",,
,p5Text,12,72718,0.0-4.0,f078aa2862041786868ef9f2ad23336df49386eb98fe8259951830bdf7c3dbfd,5dac7eaa59f37100128372d5,"[101, 89, 8, 93, 102, 9, 98, 144, 66, 25, 26, 247, 101, 15, 154, 42, 5, 222, 30, 173, 72, 145, 45, 73, 105, 4, 173, 48, 219, 68, 13, 113]",5f183ba2066b9c11e73f0302,5dac7eaa59f37100128372d5,5f1958b2a1a99a00081b0184,0.25,lentil,,,,,,,,,,,,,,
,p5Text,13,81717,0.0-5.0,f078aa2862041786868ef9f2ad23336df49386eb98fe8259951830bdf7c3dbfd,5dac7eaa59f37100128372d5,"[101, 89, 8, 93, 102, 9, 98, 144, 66, 25, 26, 247, 101, 15, 154, 42, 5, 222, 30, 173, 72, 145, 45, 73, 105, 4, 173, 48, 219, 68, 13, 113]",5f183ba2066b9c11e73f0302,5dac7eaa59f37100128372d5,5f1958b2a1a99a00081b0184,0.25,lentil,,,,,,,,,,,,,,
,p5Text,14,86101,0.0-6.0-0.0,f078aa2862041786868ef9f2ad23336df49386eb98fe8259951830bdf7c3dbfd,5dac7eaa59f37100128372d5,"[101, 89, 8, 93, 102, 9, 98, 144, 66, 25, 26, 247, 101, 15, 154, 42, 5, 222, 30, 173, 72, 145, 45, 73, 105, 4, 173, 48, 219, 68, 13, 113]",5f183ba2066b9c11e73f0302,5dac7eaa59f37100128372d5,5f1958b2a1a99a00081b0184,0.25,lentil,,,,,,,,,,,,,,
,p5cd_ad,15,88913,0.0-6.0-1.0-0.0,f078aa2862041786868ef9f2ad23336df49386eb98fe8259951830bdf7c3dbfd,5dac7eaa59f37100128372d5,"[101, 89, 8, 93, 102, 9, 98, 144, 66, 25, 26, 247, 101, 15, 154, 42, 5, 222, 30, 173, 72, 145, 45, 73, 105, 4, 173, 48, 219, 68, 13, 113]",5f183ba2066b9c11e73f0302,5dac7eaa59f37100128372d5,5f1958b2a1a99a00081b0184,0.25,lentil,,,9.0,1.0,1.0,1291.6344765108079,f,10.445523541420698,j,test,0.0,,,
,p5cd_ad,16,92597,0.0-6.0-1.0-0.1,f078aa2862041786868ef9f2ad23336df49386eb98fe8259951830bdf7c3dbfd,5dac7eaa59f37100128372d5,"[101, 89, 8, 93, 102, 9, 98, 144, 66, 25, 26, 247, 101, 15, 154, 42, 5, 222, 30, 173, 72, 145, 45, 73, 105, 4, 173, 48, 219, 68, 13, 113]",5f183ba2066b9c11e73f0302,5dac7eaa59f37100128372d5,5f1958b2a1a99a00081b0184,0.25,lentil,,,1.0,0.0,1.0,1873.5673304181546,f,296.0026696091518,f,test,1.0,,,
,p5cd_ad,17,95314,0.0-6.0-1.0-0.2,f078aa2862041786868ef9f2ad23336df49386eb98fe8259951830bdf7c3dbfd,5dac7eaa59f37100128372d5,"[101, 89, 8, 93, 102, 9, 98, 144, 66, 25, 26, 247, 101, 15, 154, 42, 5, 222, 30, 173, 72, 145, 45, 73, 105, 4, 173, 48, 219, 68, 13, 113]",5f183ba2066b9c11e73f0302,5dac7eaa59f37100128372d5,5f1958b2a1a99a00081b0184,0.25,lentil,,,9.0,0.0,1.0,785.8687080442905,f,419.7462919401005,f,test,1.0,,,
,p5cd_ad,18,98930,0.0-6.0-1.0-0.3,f078aa2862041786868ef9f2ad23336df49386eb98fe8259951830bdf7c3dbfd,5dac7eaa59f37100128372d5,"[101, 89, 8, 93, 102, 9, 98, 144, 66, 25, 26, 247, 101, 15, 154, 42, 5, 222, 30, 173, 72, 145, 45, 73, 105, 4, 173, 48, 219, 68, 13, 113]",5f183ba2066b9c11e73f0302,5dac7eaa59f37100128372d5,5f1958b2a1a99a00081b0184,0.25,lentil,,,5.0,0.0,0.0,1881.8746449542232,f,229.30035507306457,f,test,1.0,,,
,p5cd_ad,19,102880,0.0-6.0-1.0-0.4,f078aa2862041786868ef9f2ad23336df49386eb98fe8259951830bdf7c3dbfd,5dac7eaa59f37100128372d5,"[101, 89, 8, 93, 102, 9, 98, 144, 66, 25, 26, 247, 101, 15, 154, 42, 5, 222, 30, 173, 72, 145, 45, 73, 105, 4, 173, 48, 219, 68, 13, 113]",5f183ba2066b9c11e73f0302,5dac7eaa59f37100128372d5,5f1958b2a1a99a00081b0184,0.25,lentil,,,9.0,0.0,0.0,1963.2015234674327,j,471.81347652804106,f,test,0.0,,,
,p5cd_ad,20,106130,0.0-6.0-1.0-0.5,f078aa2862041786868ef9f2ad23336df49386eb98fe8259951830bdf7c3dbfd,5dac7eaa59f37100128372d5,"[101, 89, 8, 93, 102, 9, 98, 144, 66, 25, 26, 247, 101, 15, 154, 42, 5, 222, 30, 173, 72, 145, 45, 73, 105, 4, 173, 48, 219, 68, 13, 113]",5f183ba2066b9c11e73f0302,5dac7eaa59f37100128372d5,5f1958b2a1a99a00081b0184,0.25,lentil,,,3.0,1.0,1.0,1488.4376285481267,j,248.31237143371254,j,test,1.0,,,
,p5cd_ad,21,109547,0.0-6.0-1.0-0.6,f078aa2862041786868ef9f2ad23336df49386eb98fe8259951830bdf7c3dbfd,5dac7eaa59f37100128372d5,"[101, 89, 8, 93, 102, 9, 98, 144, 66, 25, 26, 247, 101, 15, 154, 42, 5, 222, 30, 173, 72, 145, 45, 73, 105, 4, 173, 48, 219, 68, 13, 113]",5f183ba2066b9c11e73f0302,5dac7eaa59f37100128372d5,5f1958b2a1a99a00081b0184,0.25,lentil,,,3.0,1.0,0.0,1885.2011704584584,j,23.51382956840098,j,test,1.0,,,
,p5cd_ad,22,112631,0.0-6.0-1.0-0.7,f078aa2862041786868ef9f2ad23336df49386eb98fe8259951830bdf7c3dbfd,5dac7eaa59f37100128372d5,"[101, 89, 8, 93, 102, 9, 98, 144, 66, 25, 26, 247, 101, 15, 154, 42, 5, 222, 30, 173, 72, 145, 45, 73, 105, 4, 173, 48, 219, 68, 13, 113]",5f183ba2066b9c11e73f0302,5dac7eaa59f37100128372d5,5f1958b2a1a99a00081b0184,0.25,lentil,,,5.0,1.0,1.0,1119.4746415130794,f,451.75535848829895,j,test,0.0,,,
,p5cd_ad,23,115181,0.0-6.0-1.0-0.8,f078aa2862041786868ef9f2ad23336df49386eb98fe8259951830bdf7c3dbfd,5dac7eaa59f37100128372d5,"[101, 89, 8, 93, 102, 9, 98, 144, 66, 25, 26, 247, 101, 15, 154, 42, 5, 222, 30, 173, 72, 145, 45, 73, 105, 4, 173, 48, 219, 68, 13, 113]",5f183ba2066b9c11e73f0302,5dac7eaa59f37100128372d5,5f1958b2a1a99a00081b0184,0.25,lentil,,,3.0,0.0,1.0,1008.5555893019773,f,27.839410700835288,f,test,1.0,,,
,p5cd_ad,24,118380,0.0-6.0-1.0-0.9,f078aa2862041786868ef9f2ad23336df49386eb98fe8259951830bdf7c3dbfd,5dac7eaa59f37100128372d5,"[101, 89, 8, 93, 102, 9, 98, 144, 66, 25, 26, 247, 101, 15, 154, 42, 5, 222, 30, 173, 72, 145, 45, 73, 105, 4, 173, 48, 219, 68, 13, 113]",5f183ba2066b9c11e73f0302,5dac7eaa59f37100128372d5,5f1958b2a1a99a00081b0184,0.25,lentil,,,9.0,1.0,0.0,1284.1223692521453,f,406.0726307798177,j,test,0.0,,,
,p5cd_ad,25,121231,0.0-6.0-1.0-0.10,f078aa2862041786868ef9f2ad23336df49386eb98fe8259951830bdf7c3dbfd,5dac7eaa59f37100128372d5,"[101, 89, 8, 93, 102, 9, 98, 144, 66, 25, 26, 247, 101, 15, 154, 42, 5, 222, 30, 173, 72, 145, 45, 73, 105, 4, 173, 48, 219, 68, 13, 113]",5f183ba2066b9c11e73f0302,5dac7eaa59f37100128372d5,5f1958b2a1a99a00081b0184,0.25,lentil,,,5.0,1.0,0.0,916.4457494625822,f,423.8292505033314,j,test,0.0,,,
,p5cd_ad,26,124064,0.0-6.0-1.0-0.11,f078aa2862041786868ef9f2ad23336df49386eb98fe8259951830bdf7c3dbfd,5dac7eaa59f37100128372d5,"[101, 89, 8, 93, 102, 9, 98, 144, 66, 25, 26, 247, 101, 15, 154, 42, 5, 222, 30, 173, 72, 145, 45, 73, 105, 4, 173, 48, 219, 68, 13, 113]",5f183ba2066b9c11e73f0302,5dac7eaa59f37100128372d5,5f1958b2a1a99a00081b0184,0.25,lentil,,,1.0,1.0,1.0,944.9291896889918,j,378.37081030011177,j,test,1.0,,,
,p5cd_ad,27,127064,0.0-6.0-1.0-0.12,f078aa2862041786868ef9f2ad23336df49386eb98fe8259951830bdf7c3dbfd,5dac7eaa59f37100128372d5,"[101, 89, 8, 93, 102, 9, 98, 144, 66, 25, 26, 247, 101, 15, 154, 42, 5, 222, 30, 173, 72, 145, 45, 73, 105, 4, 173, 48, 219, 68, 13, 113]",5f183ba2066b9c11e73f0302,5dac7eaa59f37100128372d5,5f1958b2a1a99a00081b0184,0.25,lentil,,,5.0,0.0,1.0,1015.4974382603541,f,476.02256177924573,f,test,1.0,,,
,p5cd_ad,28,129699,0.0-6.0-1.0-0.13,f078aa2862041786868ef9f2ad23336df49386eb98fe8259951830bdf7c3dbfd,5dac7eaa59f37100128372d5,"[101, 89, 8, 93, 102, 9, 98, 144, 66, 25, 26, 247, 101, 15, 154, 42, 5, 222, 30, 173, 72, 145, 45, 73, 105, 4, 173, 48, 219, 68, 13, 113]",5f183ba2066b9c11e73f0302,5dac7eaa59f37100128372d5,5f1958b2a1a99a00081b0184,0.25,lentil,,,3.0,0.0,0.0,857.7236191486008,f,259.73638088908046,f,test,1.0,,,
,p5cd_ad,29,132014,0.0-6.0-1.0-0.14,f078aa2862041786868ef9f2ad23336df49386eb98fe8259951830bdf7c3dbfd,5dac7eaa59f37100128372d5,"[101, 89, 8, 93, 102, 9, 98, 144, 66, 25, 26, 247, 101, 15, 154, 42, 5, 222, 30, 173, 72, 145, 45, 73, 105, 4, 173, 48, 219, 68, 13, 113]",5f183ba2066b9c11e73f0302,5dac7eaa59f37100128372d5,5f1958b2a1a99a00081b0184,0.25,lentil,,,1.0,1.0,0.0,753.1222770921886,j,53.58772294130176,j,test,1.0,,,
,p5cd_ad,30,134264,0.0-6.0-1.0-0.15,f078aa2862041786868ef9f2ad23336df49386eb98fe8259951830bdf7c3dbfd,5dac7eaa59f37100128372d5,"[101, 89, 8, 93, 102, 9, 98, 144, 66, 25, 26, 247, 101, 15, 154, 42, 5, 222, 30, 173, 72, 145, 45, 73, 105, 4, 173, 48, 219, 68, 13, 113]",5f183ba2066b9c11e73f0302,5dac7eaa59f37100128372d5,5f1958b2a1a99a00081b0184,0.25,lentil,,,1.0,0.0,0.0,741.0441266838461,f,2.135873306542635,f,test,1.0,,,
,p5Text,31,148774,0.0-6.0-2.0,f078aa2862041786868ef9f2ad23336df49386eb98fe8259951830bdf7c3dbfd,5dac7eaa59f37100128372d5,"[101, 89, 8, 93, 102, 9, 98, 144, 66, 25, 26, 247, 101, 15, 154, 42, 5, 222, 30, 173, 72, 145, 45, 73, 105, 4, 173, 48, 219, 68, 13, 113]",5f183ba2066b9c11e73f0302,5dac7eaa59f37100128372d5,5f1958b2a1a99a00081b0184,0.25,lentil,,,,,,,,,,,,,,
,p5Text,32,152737,0.0-6.0-0.1,f078aa2862041786868ef9f2ad23336df49386eb98fe8259951830bdf7c3dbfd,5dac7eaa59f37100128372d5,"[101, 89, 8, 93, 102, 9, 98, 144, 66, 25, 26, 247, 101, 15, 154, 42, 5, 222, 30, 173, 72, 145, 45, 73, 105, 4, 173, 48, 219, 68, 13, 113]",5f183ba2066b9c11e73f0302,5dac7eaa59f37100128372d5,5f1958b2a1a99a00081b0184,0.25,lentil,,,,,,,,,,,,,,
,p5cd_ad,33,155615,0.0-6.0-1.1-0.16,f078aa2862041786868ef9f2ad23336df49386eb98fe8259951830bdf7c3dbfd,5dac7eaa59f37100128372d5,"[101, 89, 8, 93, 102, 9, 98, 144, 66, 25, 26, 247, 101, 15, 154, 42, 5, 222, 30, 173, 72, 145, 45, 73, 105, 4, 173, 48, 219, 68, 13, 113]",5f183ba2066b9c11e73f0302,5dac7eaa59f37100128372d5,5f1958b2a1a99a00081b0184,0.25,lentil,,,5.0,1.0,1.0,917.4320613383316,f,448.1379386270419,j,test,0.0,,,
,p5cd_ad,34,158531,0.0-6.0-1.1-0.17,f078aa2862041786868ef9f2ad23336df49386eb98fe8259951830bdf7c3dbfd,5dac7eaa59f37100128372d5,"[101, 89, 8, 93, 102, 9, 98, 144, 66, 25, 26, 247, 101, 15, 154, 42, 5, 222, 30, 173, 72, 145, 45, 73, 105, 4, 173, 48, 219, 68, 13, 113]",5f183ba2066b9c11e73f0302,5dac7eaa59f37100128372d5,5f1958b2a1a99a00081b0184,0.25,lentil,,,1.0,0.0,1.0,938.4214103920385,f,471.80358960758895,f,test,1.0,,,
,p5cd_ad,35,161564,0.0-6.0-1.1-0.18,f078aa2862041786868ef9f2ad23336df49386eb98fe8259951830bdf7c3dbfd,5dac7eaa59f37100128372d5,"[101, 89, 8, 93, 102, 9, 98, 144, 66, 25, 26, 247, 101, 15, 154, 42, 5, 222, 30, 173, 72, 145, 45, 73, 105, 4, 173, 48, 219, 68, 13, 113]",5f183ba2066b9c11e73f0302,5dac7eaa59f37100128372d5,5f1958b2a1a99a00081b0184,0.25,lentil,,,9.0,0.0,1.0,1127.4060673895292,f,398.25893263332546,f,test,1.0,,,
,p5cd_ad,36,164265,0.0-6.0-1.1-0.19,f078aa2862041786868ef9f2ad23336df49386eb98fe8259951830bdf7c3dbfd,5dac7eaa59f37100128372d5,"[101, 89, 8, 93, 102, 9, 98, 144, 66, 25, 26, 247, 101, 15, 154, 42, 5, 222, 30, 173, 72, 145, 45, 73, 105, 4, 173, 48, 219, 68, 13, 113]",5f183ba2066b9c11e73f0302,5dac7eaa59f37100128372d5,5f1958b2a1a99a00081b0184,0.25,lentil,,,3.0,0.0,1.0,935.9829927561805,f,254.6370072523132,f,test,1.0,,,
,p5cd_ad,37,166765,0.0-6.0-1.1-0.20,f078aa2862041786868ef9f2ad23336df49386eb98fe8259951830bdf7c3dbfd,5dac7eaa59f37100128372d5,"[101, 89, 8, 93, 102, 9, 98, 144, 66, 25, 26, 247, 101, 15, 154, 42, 5, 222, 30, 173, 72, 145, 45, 73, 105, 4, 173, 48, 219, 68, 13, 113]",5f183ba2066b9c11e73f0302,5dac7eaa59f37100128372d5,5f1958b2a1a99a00081b0184,0.25,lentil,,,1.0,1.0,0.0,795.4329124186188,j,196.35708758141845,j,test,1.0,,,
,p5cd_ad,38,169381,0.0-6.0-1.1-0.21,f078aa2862041786868ef9f2ad23336df49386eb98fe8259951830bdf7c3dbfd,5dac7eaa59f37100128372d5,"[101, 89, 8, 93, 102, 9, 98, 144, 66, 25, 26, 247, 101, 15, 154, 42, 5, 222, 30, 173, 72, 145, 45, 73, 105, 4, 173, 48, 219, 68, 13, 113]",5f183ba2066b9c11e73f0302,5dac7eaa59f37100128372d5,5f1958b2a1a99a00081b0184,0.25,lentil,,,5.0,0.0,1.0,872.7230512304232,f,229.6819487819448,f,test,1.0,,,
,p5cd_ad,39,171748,0.0-6.0-1.1-0.22,f078aa2862041786868ef9f2ad23336df49386eb98fe8259951830bdf7c3dbfd,5dac7eaa59f37100128372d5,"[101, 89, 8, 93, 102, 9, 98, 144, 66, 25, 26, 247, 101, 15, 154, 42, 5, 222, 30, 173, 72, 145, 45, 73, 105, 4, 173, 48, 219, 68, 13, 113]",5f183ba2066b9c11e73f0302,5dac7eaa59f37100128372d5,5f1958b2a1a99a00081b0184,0.25,lentil,,,3.0,0.0,0.0,823.4827253036201,f,29.362274683080614,f,test,1.0,,,
,p5cd_ad,40,174815,0.0-6.0-1.1-0.23,f078aa2862041786868ef9f2ad23336df49386eb98fe8259951830bdf7c3dbfd,5dac7eaa59f37100128372d5,"[101, 89, 8, 93, 102, 9, 98, 144, 66, 25, 26, 247, 101, 15, 154, 42, 5, 222, 30, 173, 72, 145, 45, 73, 105, 4, 173, 48, 219, 68, 13, 113]",5f183ba2066b9c11e73f0302,5dac7eaa59f37100128372d5,5f1958b2a1a99a00081b0184,0.25,lentil,,,5.0,1.0,0.0,1246.4756035478786,j,313.4193964069709,j,test,1.0,,,
,p5cd_ad,41,177648,0.0-6.0-1.1-0.24,f078aa2862041786868ef9f2ad23336df49386eb98fe8259951830bdf7c3dbfd,5dac7eaa59f37100128372d5,"[101, 89, 8, 93, 102, 9, 98, 144, 66, 25, 26, 247, 101, 15, 154, 42, 5, 222, 30, 173, 72, 145, 45, 73, 105, 4, 173, 48, 219, 68, 13, 113]",5f183ba2066b9c11e73f0302,5dac7eaa59f37100128372d5,5f1958b2a1a99a00081b0184,0.25,lentil,,,1.0,0.0,0.0,964.4165654899552,f,354.9934345064685,f,test,1.0,,,
,p5cd_ad,42,180598,0.0-6.0-1.1-0.25,f078aa2862041786868ef9f2ad23336df49386eb98fe8259951830bdf7c3dbfd,5dac7eaa59f37100128372d5,"[101, 89, 8, 93, 102, 9, 98, 144, 66, 25, 26, 247, 101, 15, 154, 42, 5, 222, 30, 173, 72, 145, 45, 73, 105, 4, 173, 48, 219, 68, 13, 113]",5f183ba2066b9c11e73f0302,5dac7eaa59f37100128372d5,5f1958b2a1a99a00081b0184,0.25,lentil,,,9.0,0.0,0.0,1025.8057574392296,f,414.18424260336906,f,test,1.0,,,
,p5cd_ad,43,184482,0.0-6.0-1.1-0.26,f078aa2862041786868ef9f2ad23336df49386eb98fe8259951830bdf7c3dbfd,5dac7eaa59f37100128372d5,"[101, 89, 8, 93, 102, 9, 98, 144, 66, 25, 26, 247, 101, 15, 154, 42, 5, 222, 30, 173, 72, 145, 45, 73, 105, 4, 173, 48, 219, 68, 13, 113]",5f183ba2066b9c11e73f0302,5dac7eaa59f37100128372d5,5f1958b2a1a99a00081b0184,0.25,lentil,,,9.0,1.0,0.0,1952.3504112730734,f,416.909588733688,j,test,0.0,,,
,p5cd_ad,44,187431,0.0-6.0-1.1-0.27,f078aa2862041786868ef9f2ad23336df49386eb98fe8259951830bdf7c3dbfd,5dac7eaa59f37100128372d5,"[101, 89, 8, 93, 102, 9, 98, 144, 66, 25, 26, 247, 101, 15, 154, 42, 5, 222, 30, 173, 72, 145, 45, 73, 105, 4, 173, 48, 219, 68, 13, 113]",5f183ba2066b9c11e73f0302,5dac7eaa59f37100128372d5,5f1958b2a1a99a00081b0184,0.25,lentil,,,1.0,1.0,1.0,944.3135050241835,j,486.6964949760586,j,test,1.0,,,
,p5cd_ad,45,190315,0.0-6.0-1.1-0.28,f078aa2862041786868ef9f2ad23336df49386eb98fe8259951830bdf7c3dbfd,5dac7eaa59f37100128372d5,"[101, 89, 8, 93, 102, 9, 98, 144, 66, 25, 26, 247, 101, 15, 154, 42, 5, 222, 30, 173, 72, 145, 45, 73, 105, 4, 173, 48, 219, 68, 13, 113]",5f183ba2066b9c11e73f0302,5dac7eaa59f37100128372d5,5f1958b2a1a99a00081b0184,0.25,lentil,,,3.0,1.0,0.0,1366.5560852386989,f,3.268914762884378,j,test,0.0,,,
,p5cd_ad,46,193448,0.0-6.0-1.1-0.29,f078aa2862041786868ef9f2ad23336df49386eb98fe8259951830bdf7c3dbfd,5dac7eaa59f37100128372d5,"[101, 89, 8, 93, 102, 9, 98, 144, 66, 25, 26, 247, 101, 15, 154, 42, 5, 222, 30, 173, 72, 145, 45, 73, 105, 4, 173, 48, 219, 68, 13, 113]",5f183ba2066b9c11e73f0302,5dac7eaa59f37100128372d5,5f1958b2a1a99a00081b0184,0.25,lentil,,,9.0,1.0,1.0,1349.2006164160557,f,277.54938357975334,j,test,0.0,,,
,p5cd_ad,47,197315,0.0-6.0-1.1-0.30,f078aa2862041786868ef9f2ad23336df49386eb98fe8259951830bdf7c3dbfd,5dac7eaa59f37100128372d5,"[101, 89, 8, 93, 102, 9, 98, 144, 66, 25, 26, 247, 101, 15, 154, 42, 5, 222, 30, 173, 72, 145, 45, 73, 105, 4, 173, 48, 219, 68, 13, 113]",5f183ba2066b9c11e73f0302,5dac7eaa59f37100128372d5,5f1958b2a1a99a00081b0184,0.25,lentil,,,5.0,0.0,0.0,1916.3617445155978,j,442.1332555357367,f,test,0.0,,,
,p5cd_ad,48,200349,0.0-6.0-1.1-0.31,f078aa2862041786868ef9f2ad23336df49386eb98fe8259951830bdf7c3dbfd,5dac7eaa59f37100128372d5,"[101, 89, 8, 93, 102, 9, 98, 144, 66, 25, 26, 247, 101, 15, 154, 42, 5, 222, 30, 173, 72, 145, 45, 73, 105, 4, 173, 48, 219, 68, 13, 113]",5f183ba2066b9c11e73f0302,5dac7eaa59f37100128372d5,5f1958b2a1a99a00081b0184,0.25,lentil,,,3.0,1.0,1.0,1229.035537224263,j,286.66446276474744,j,test,1.0,,,
,p5Text,49,213523,0.0-6.0-2.1,f078aa2862041786868ef9f2ad23336df49386eb98fe8259951830bdf7c3dbfd,5dac7eaa59f37100128372d5,"[101, 89, 8, 93, 102, 9, 98, 144, 66, 25, 26, 247, 101, 15, 154, 42, 5, 222, 30, 173, 72, 145, 45, 73, 105, 4, 173, 48, 219, 68, 13, 113]",5f183ba2066b9c11e73f0302,5dac7eaa59f37100128372d5,5f1958b2a1a99a00081b0184,0.25,lentil,,,,,,,,,,,,,,
,p5Text,50,216598,0.0-6.0-0.2,f078aa2862041786868ef9f2ad23336df49386eb98fe8259951830bdf7c3dbfd,5dac7eaa59f37100128372d5,"[101, 89, 8, 93, 102, 9, 98, 144, 66, 25, 26, 247, 101, 15, 154, 42, 5, 222, 30, 173, 72, 145, 45, 73, 105, 4, 173, 48, 219, 68, 13, 113]",5f183ba2066b9c11e73f0302,5dac7eaa59f37100128372d5,5f1958b2a1a99a00081b0184,0.25,lentil,,,,,,,,,,,,,,
,p5cd_ad,51,219415,0.0-6.0-1.2-0.32,f078aa2862041786868ef9f2ad23336df49386eb98fe8259951830bdf7c3dbfd,5dac7eaa59f37100128372d5,"[101, 89, 8, 93, 102, 9, 98, 144, 66, 25, 26, 247, 101, 15, 154, 42, 5, 222, 30, 173, 72, 145, 45, 73, 105, 4, 173, 48, 219, 68, 13, 113]",5f183ba2066b9c11e73f0302,5dac7eaa59f37100128372d5,5f1958b2a1a99a00081b0184,0.25,lentil,,,1.0,0.0,0.0,946.289791201707,f,362.91020875796676,f,test,1.0,,,
,p5cd_ad,52,221766,0.0-6.0-1.2-0.33,f078aa2862041786868ef9f2ad23336df49386eb98fe8259951830bdf7c3dbfd,5dac7eaa59f37100128372d5,"[101, 89, 8, 93, 102, 9, 98, 144, 66, 25, 26, 247, 101, 15, 154, 42, 5, 222, 30, 173, 72, 145, 45, 73, 105, 4, 173, 48, 219, 68, 13, 113]",5f183ba2066b9c11e73f0302,5dac7eaa59f37100128372d5,5f1958b2a1a99a00081b0184,0.25,lentil,,,1.0,1.0,0.0,772.2457203781232,j,71.22427958529443,j,test,1.0,,,
,p5cd_ad,53,224500,0.0-6.0-1.2-0.34,f078aa2862041786868ef9f2ad23336df49386eb98fe8259951830bdf7c3dbfd,5dac7eaa59f37100128372d5,"[101, 89, 8, 93, 102, 9, 98, 144, 66, 25, 26, 247, 101, 15, 154, 42, 5, 222, 30, 173, 72, 145, 45, 73, 105, 4, 173, 48, 219, 68, 13, 113]",5f183ba2066b9c11e73f0302,5dac7eaa59f37100128372d5,5f1958b2a1a99a00081b0184,0.25,lentil,,,1.0,1.0,1.0,1070.3990566544235,j,150.78094333875924,j,test,1.0,,,
,p5cd_ad,54,228699,0.0-6.0-1.2-0.35,f078aa2862041786868ef9f2ad23336df49386eb98fe8259951830bdf7c3dbfd,5dac7eaa59f37100128372d5,"[101, 89, 8, 93, 102, 9, 98, 144, 66, 25, 26, 247, 101, 15, 154, 42, 5, 222, 30, 173, 72, 145, 45, 73, 105, 4, 173, 48, 219, 68, 13, 113]",5f183ba2066b9c11e73f0302,5dac7eaa59f37100128372d5,5f1958b2a1a99a00081b0184,0.25,lentil,,,9.0,0.0,0.0,2409.3327039736323,f,274.08229606226087,f,test,1.0,,,
,p5cd_ad,55,233116,0.0-6.0-1.2-0.36,f078aa2862041786868ef9f2ad23336df49386eb98fe8259951830bdf7c3dbfd,5dac7eaa59f37100128372d5,"[101, 89, 8, 93, 102, 9, 98, 144, 66, 25, 26, 247, 101, 15, 154, 42, 5, 222, 30, 173, 72, 145, 45, 73, 105, 4, 173, 48, 219, 68, 13, 113]",5f183ba2066b9c11e73f0302,5dac7eaa59f37100128372d5,5f1958b2a1a99a00081b0184,0.25,lentil,,,5.0,0.0,1.0,2678.9935695705935,j,220.53143044468015,f,test,0.0,,,
,p5cd_ad,56,235949,0.0-6.0-1.2-0.37,f078aa2862041786868ef9f2ad23336df49386eb98fe8259951830bdf7c3dbfd,5dac7eaa59f37100128372d5,"[101, 89, 8, 93, 102, 9, 98, 144, 66, 25, 26, 247, 101, 15, 154, 42, 5, 222, 30, 173, 72, 145, 45, 73, 105, 4, 173, 48, 219, 68, 13, 113]",5f183ba2066b9c11e73f0302,5dac7eaa59f37100128372d5,5f1958b2a1a99a00081b0184,0.25,lentil,,,1.0,0.0,1.0,1298.7421877332963,f,28.65281223785132,f,test,1.0,,,
,p5cd_ad,57,238933,0.0-6.0-1.2-0.38,f078aa2862041786868ef9f2ad23336df49386eb98fe8259951830bdf7c3dbfd,5dac7eaa59f37100128372d5,"[101, 89, 8, 93, 102, 9, 98, 144, 66, 25, 26, 247, 101, 15, 154, 42, 5, 222, 30, 173, 72, 145, 45, 73, 105, 4, 173, 48, 219, 68, 13, 113]",5f183ba2066b9c11e73f0302,5dac7eaa59f37100128372d5,5f1958b2a1a99a00081b0184,0.25,lentil,,,3.0,0.0,0.0,1172.3701283917762,f,296.65987158659846,f,test,1.0,,,
,p5cd_ad,58,242700,0.0-6.0-1.2-0.39,f078aa2862041786868ef9f2ad23336df49386eb98fe8259951830bdf7c3dbfd,5dac7eaa59f37100128372d5,"[101, 89, 8, 93, 102, 9, 98, 144, 66, 25, 26, 247, 101, 15, 154, 42, 5, 222, 30, 173, 72, 145, 45, 73, 105, 4, 173, 48, 219, 68, 13, 113]",5f183ba2066b9c11e73f0302,5dac7eaa59f37100128372d5,5f1958b2a1a99a00081b0184,0.25,lentil,,,5.0,1.0,1.0,2099.183852726128,j,153.83614727761596,j,test,1.0,,,
,p5cd_ad,59,246517,0.0-6.0-1.2-0.40,f078aa2862041786868ef9f2ad23336df49386eb98fe8259951830bdf7c3dbfd,5dac7eaa59f37100128372d5,"[101, 89, 8, 93, 102, 9, 98, 144, 66, 25, 26, 247, 101, 15, 154, 42, 5, 222, 30, 173, 72, 145, 45, 73, 105, 4, 173, 48, 219, 68, 13, 113]",5f183ba2066b9c11e73f0302,5dac7eaa59f37100128372d5,5f1958b2a1a99a00081b0184,0.25,lentil,,,5.0,1.0,0.0,1926.710088737309,j,377.7649112744257,j,test,1.0,,,
,p5cd_ad,60,249583,0.0-6.0-1.2-0.41,f078aa2862041786868ef9f2ad23336df49386eb98fe8259951830bdf7c3dbfd,5dac7eaa59f37100128372d5,"[101, 89, 8, 93, 102, 9, 98, 144, 66, 25, 26, 247, 101, 15, 154, 42, 5, 222, 30, 173, 72, 145, 45, 73, 105, 4, 173, 48, 219, 68, 13, 113]",5f183ba2066b9c11e73f0302,5dac7eaa59f37100128372d5,5f1958b2a1a99a00081b0184,0.25,lentil,,,3.0,1.0,1.0,1119.6887115947902,j,439.6162884077057,j,test,1.0,,,
,p5cd_ad,61,252700,0.0-6.0-1.2-0.42,f078aa2862041786868ef9f2ad23336df49386eb98fe8259951830bdf7c3dbfd,5dac7eaa59f37100128372d5,"[101, 89, 8, 93, 102, 9, 98, 144, 66, 25, 26, 247, 101, 15, 154, 42, 5, 222, 30, 173, 72, 145, 45, 73, 105, 4, 173, 48, 219, 68, 13, 113]",5f183ba2066b9c11e73f0302,5dac7eaa59f37100128372d5,5f1958b2a1a99a00081b0184,0.25,lentil,,,9.0,0.0,1.0,1242.5100654945709,f,366.5999345248565,f,test,1.0,,,
,p5cd_ad,62,255700,0.0-6.0-1.2-0.43,f078aa2862041786868ef9f2ad23336df49386eb98fe8259951830bdf7c3dbfd,5dac7eaa59f37100128372d5,"[101, 89, 8, 93, 102, 9, 98, 144, 66, 25, 26, 247, 101, 15, 154, 42, 5, 222, 30, 173, 72, 145, 45, 73, 105, 4, 173, 48, 219, 68, 13, 113]",5f183ba2066b9c11e73f0302,5dac7eaa59f37100128372d5,5f1958b2a1a99a00081b0184,0.25,lentil,,,9.0,1.0,0.0,1248.4332491876557,j,237.16675082687289,j,test,1.0,,,
,p5cd_ad,63,258733,0.0-6.0-1.2-0.44,f078aa2862041786868ef9f2ad23336df49386eb98fe8259951830bdf7c3dbfd,5dac7eaa59f37100128372d5,"[101, 89, 8, 93, 102, 9, 98, 144, 66, 25, 26, 247, 101, 15, 154, 42, 5, 222, 30, 173, 72, 145, 45, 73, 105, 4, 173, 48, 219, 68, 13, 113]",5f183ba2066b9c11e73f0302,5dac7eaa59f37100128372d5,5f1958b2a1a99a00081b0184,0.25,lentil,,,3.0,0.0,1.0,1307.7621380798519,f,212.8178619313985,f,test,1.0,,,
,p5cd_ad,64,261484,0.0-6.0-1.2-0.45,f078aa2862041786868ef9f2ad23336df49386eb98fe8259951830bdf7c3dbfd,5dac7eaa59f37100128372d5,"[101, 89, 8, 93, 102, 9, 98, 144, 66, 25, 26, 247, 101, 15, 154, 42, 5, 222, 30, 173, 72, 145, 45, 73, 105, 4, 173, 48, 219, 68, 13, 113]",5f183ba2066b9c11e73f0302,5dac7eaa59f37100128372d5,5f1958b2a1a99a00081b0184,0.25,lentil,,,3.0,1.0,0.0,1051.744832075201,j,191.0851679276675,j,test,1.0,,,
,p5cd_ad,65,265033,0.0-6.0-1.2-0.46,f078aa2862041786868ef9f2ad23336df49386eb98fe8259951830bdf7c3dbfd,5dac7eaa59f37100128372d5,"[101, 89, 8, 93, 102, 9, 98, 144, 66, 25, 26, 247, 101, 15, 154, 42, 5, 222, 30, 173, 72, 145, 45, 73, 105, 4, 173, 48, 219, 68, 13, 113]",5f183ba2066b9c11e73f0302,5dac7eaa59f37100128372d5,5f1958b2a1a99a00081b0184,0.25,lentil,,,9.0,1.0,1.0,2022.9181743925437,f,11.47682557348162,j,test,0.0,,,
,p5cd_ad,66,268416,0.0-6.0-1.2-0.47,f078aa2862041786868ef9f2ad23336df49386eb98fe8259951830bdf7c3dbfd,5dac7eaa59f37100128372d5,"[101, 89, 8, 93, 102, 9, 98, 144, 66, 25, 26, 247, 101, 15, 154, 42, 5, 222, 30, 173, 72, 145, 45, 73, 105, 4, 173, 48, 219, 68, 13, 113]",5f183ba2066b9c11e73f0302,5dac7eaa59f37100128372d5,5f1958b2a1a99a00081b0184,0.25,lentil,,,5.0,0.0,0.0,1835.5647907592356,f,42.925209272652864,f,test,1.0,,,
,p5Text,67,277316,0.0-6.0-2.2,f078aa2862041786868ef9f2ad23336df49386eb98fe8259951830bdf7c3dbfd,5dac7eaa59f37100128372d5,"[101, 89, 8, 93, 102, 9, 98, 144, 66, 25, 26, 247, 101, 15, 154, 42, 5, 222, 30, 173, 72, 145, 45, 73, 105, 4, 173, 48, 219, 68, 13, 113]",5f183ba2066b9c11e73f0302,5dac7eaa59f37100128372d5,5f1958b2a1a99a00081b0184,0.25,lentil,,,,,,,,,,,,,,
,p5Text,68,282247,0.0-6.0-0.3,f078aa2862041786868ef9f2ad23336df49386eb98fe8259951830bdf7c3dbfd,5dac7eaa59f37100128372d5,"[101, 89, 8, 93, 102, 9, 98, 144, 66, 25, 26, 247, 101, 15, 154, 42, 5, 222, 30, 173, 72, 145, 45, 73, 105, 4, 173, 48, 219, 68, 13, 113]",5f183ba2066b9c11e73f0302,5dac7eaa59f37100128372d5,5f1958b2a1a99a00081b0184,0.25,lentil,,,,,,,,,,,,,,
,p5cd_ad,69,284750,0.0-6.0-1.3-0.48,f078aa2862041786868ef9f2ad23336df49386eb98fe8259951830bdf7c3dbfd,5dac7eaa59f37100128372d5,"[101, 89, 8, 93, 102, 9, 98, 144, 66, 25, 26, 247, 101, 15, 154, 42, 5, 222, 30, 173, 72, 145, 45, 73, 105, 4, 173, 48, 219, 68, 13, 113]",5f183ba2066b9c11e73f0302,5dac7eaa59f37100128372d5,5f1958b2a1a99a00081b0184,0.25,lentil,,,1.0,0.0,0.0,840.4608435812406,f,142.13915646541864,f,test,1.0,,,
,p5cd_ad,70,287917,0.0-6.0-1.3-0.49,f078aa2862041786868ef9f2ad23336df49386eb98fe8259951830bdf7c3dbfd,5dac7eaa59f37100128372d5,"[101, 89, 8, 93, 102, 9, 98, 144, 66, 25, 26, 247, 101, 15, 154, 42, 5, 222, 30, 173, 72, 145, 45, 73, 105, 4, 173, 48, 219, 68, 13, 113]",5f183ba2066b9c11e73f0302,5dac7eaa59f37100128372d5,5f1958b2a1a99a00081b0184,0.25,lentil,,,3.0,1.0,0.0,1161.7270541610196,j,495.2779458835721,j,test,1.0,,,
,p5cd_ad,71,290900,0.0-6.0-1.3-0.50,f078aa2862041786868ef9f2ad23336df49386eb98fe8259951830bdf7c3dbfd,5dac7eaa59f37100128372d5,"[101, 89, 8, 93, 102, 9, 98, 144, 66, 25, 26, 247, 101, 15, 154, 42, 5, 222, 30, 173, 72, 145, 45, 73, 105, 4, 173, 48, 219, 68, 13, 113]",5f183ba2066b9c11e73f0302,5dac7eaa59f37100128372d5,5f1958b2a1a99a00081b0184,0.25,lentil,,,9.0,1.0,0.0,1361.7900751414709,f,115.2099248720333,j,test,0.0,,,
,p5cd_ad,72,293267,0.0-6.0-1.3-0.51,f078aa2862041786868ef9f2ad23336df49386eb98fe8259951830bdf7c3dbfd,5dac7eaa59f37100128372d5,"[101, 89, 8, 93, 102, 9, 98, 144, 66, 25, 26, 247, 101, 15, 154, 42, 5, 222, 30, 173, 72, 145, 45, 73, 105, 4, 173, 48, 219, 68, 13, 113]",5f183ba2066b9c11e73f0302,5dac7eaa59f37100128372d5,5f1958b2a1a99a00081b0184,0.25,lentil,,,1.0,1.0,0.0,709.5283834496513,j,146.40661654993892,j,test,1.0,,,
,p5cd_ad,73,296384,0.0-6.0-1.3-0.52,f078aa2862041786868ef9f2ad23336df49386eb98fe8259951830bdf7c3dbfd,5dac7eaa59f37100128372d5,"[101, 89, 8, 93, 102, 9, 98, 144, 66, 25, 26, 247, 101, 15, 154, 42, 5, 222, 30, 173, 72, 145, 45, 73, 105, 4, 173, 48, 219, 68, 13, 113]",5f183ba2066b9c11e73f0302,5dac7eaa59f37100128372d5,5f1958b2a1a99a00081b0184,0.25,lentil,,,3.0,0.0,0.0,1410.9158955980092,f,195.09910442866385,f,test,1.0,,,
,p5cd_ad,74,299384,0.0-6.0-1.3-0.53,f078aa2862041786868ef9f2ad23336df49386eb98fe8259951830bdf7c3dbfd,5dac7eaa59f37100128372d5,"[101, 89, 8, 93, 102, 9, 98, 144, 66, 25, 26, 247, 101, 15, 154, 42, 5, 222, 30, 173, 72, 145, 45, 73, 105, 4, 173, 48, 219, 68, 13, 113]",5f183ba2066b9c11e73f0302,5dac7eaa59f37100128372d5,5f1958b2a1a99a00081b0184,0.25,lentil,,,9.0,0.0,0.0,1400.5559225915931,f,82.17907743528485,f,test,1.0,,,
,p5cd_ad,75,302567,0.0-6.0-1.3-0.54,f078aa2862041786868ef9f2ad23336df49386eb98fe8259951830bdf7c3dbfd,5dac7eaa59f37100128372d5,"[101, 89, 8, 93, 102, 9, 98, 144, 66, 25, 26, 247, 101, 15, 154, 42, 5, 222, 30, 173, 72, 145, 45, 73, 105, 4, 173, 48, 219, 68, 13, 113]",5f183ba2066b9c11e73f0302,5dac7eaa59f37100128372d5,5f1958b2a1a99a00081b0184,0.25,lentil,,,5.0,0.0,1.0,1606.3957993173972,f,61.394200660288334,f,test,1.0,,,
,p5cd_ad,76,305450,0.0-6.0-1.3-0.55,f078aa2862041786868ef9f2ad23336df49386eb98fe8259951830bdf7c3dbfd,5dac7eaa59f37100128372d5,"[101, 89, 8, 93, 102, 9, 98, 144, 66, 25, 26, 247, 101, 15, 154, 42, 5, 222, 30, 173, 72, 145, 45, 73, 105, 4, 173, 48, 219, 68, 13, 113]",5f183ba2066b9c11e73f0302,5dac7eaa59f37100128372d5,5f1958b2a1a99a00081b0184,0.25,lentil,,,1.0,0.0,1.0,1125.6818044930696,f,251.28819548990577,f,test,1.0,,,
,p5cd_ad,77,308900,0.0-6.0-1.3-0.56,f078aa2862041786868ef9f2ad23336df49386eb98fe8259951830bdf7c3dbfd,5dac7eaa59f37100128372d5,"[101, 89, 8, 93, 102, 9, 98, 144, 66, 25, 26, 247, 101, 15, 154, 42, 5, 222, 30, 173, 72, 145, 45, 73, 105, 4, 173, 48, 219, 68, 13, 113]",5f183ba2066b9c11e73f0302,5dac7eaa59f37100128372d5,5f1958b2a1a99a00081b0184,0.25,lentil,,,9.0,1.0,1.0,1648.6782299471088,f,293.791770003736,j,test,0.0,,,
,p5cd_ad,78,311933,0.0-6.0-1.3-0.57,f078aa2862041786868ef9f2ad23336df49386eb98fe8259951830bdf7c3dbfd,5dac7eaa59f37100128372d5,"[101, 89, 8, 93, 102, 9, 98, 144, 66, 25, 26, 247, 101, 15, 154, 42, 5, 222, 30, 173, 72, 145, 45, 73, 105, 4, 173, 48, 219, 68, 13, 113]",5f183ba2066b9c11e73f0302,5dac7eaa59f37100128372d5,5f1958b2a1a99a00081b0184,0.25,lentil,,,5.0,1.0,0.0,1086.4060930907726,f,438.3139068959281,j,test,0.0,,,
,p5cd_ad,79,314301,0.0-6.0-1.3-0.58,f078aa2862041786868ef9f2ad23336df49386eb98fe8259951830bdf7c3dbfd,5dac7eaa59f37100128372d5,"[101, 89, 8, 93, 102, 9, 98, 144, 66, 25, 26, 247, 101, 15, 154, 42, 5, 222, 30, 173, 72, 145, 45, 73, 105, 4, 173, 48, 219, 68, 13, 113]",5f183ba2066b9c11e73f0302,5dac7eaa59f37100128372d5,5f1958b2a1a99a00081b0184,0.25,lentil,,,1.0,1.0,1.0,777.156654978171,j,86.83334500528872,j,test,1.0,,,
,p5cd_ad,80,317784,0.0-6.0-1.3-0.59,f078aa2862041786868ef9f2ad23336df49386eb98fe8259951830bdf7c3dbfd,5dac7eaa59f37100128372d5,"[101, 89, 8, 93, 102, 9, 98, 144, 66, 25, 26, 247, 101, 15, 154, 42, 5, 222, 30, 173, 72, 145, 45, 73, 105, 4, 173, 48, 219, 68, 13, 113]",5f183ba2066b9c11e73f0302,5dac7eaa59f37100128372d5,5f1958b2a1a99a00081b0184,0.25,lentil,,,5.0,1.0,1.0,1677.4858357966878,j,296.06416425667703,j,test,1.0,,,
,p5cd_ad,81,321350,0.0-6.0-1.3-0.60,f078aa2862041786868ef9f2ad23336df49386eb98fe8259951830bdf7c3dbfd,5dac7eaa59f37100128372d5,"[101, 89, 8, 93, 102, 9, 98, 144, 66, 25, 26, 247, 101, 15, 154, 42, 5, 222, 30, 173, 72, 145, 45, 73, 105, 4, 173, 48, 219, 68, 13, 113]",5f183ba2066b9c11e73f0302,5dac7eaa59f37100128372d5,5f1958b2a1a99a00081b0184,0.25,lentil,,,3.0,1.0,1.0,2048.2098807697184,j,8.19511921145022,j,test,1.0,,,
,p5cd_ad,82,324567,0.0-6.0-1.3-0.61,f078aa2862041786868ef9f2ad23336df49386eb98fe8259951830bdf7c3dbfd,5dac7eaa59f37100128372d5,"[101, 89, 8, 93, 102, 9, 98, 144, 66, 25, 26, 247, 101, 15, 154, 42, 5, 222, 30, 173, 72, 145, 45, 73, 105, 4, 173, 48, 219, 68, 13, 113]",5f183ba2066b9c11e73f0302,5dac7eaa59f37100128372d5,5f1958b2a1a99a00081b0184,0.25,lentil,,,5.0,0.0,0.0,1470.237675064709,f,237.0973249198869,f,test,1.0,,,
,p5cd_ad,83,327284,0.0-6.0-1.3-0.62,f078aa2862041786868ef9f2ad23336df49386eb98fe8259951830bdf7c3dbfd,5dac7eaa59f37100128372d5,"[101, 89, 8, 93, 102, 9, 98, 144, 66, 25, 26, 247, 101, 15, 154, 42, 5, 222, 30, 173, 72, 145, 45, 73, 105, 4, 173, 48, 219, 68, 13, 113]",5f183ba2066b9c11e73f0302,5dac7eaa59f37100128372d5,5f1958b2a1a99a00081b0184,0.25,lentil,,,3.0,0.0,1.0,987.8710971097462,f,212.64890290331095,f,test,1.0,,,
,p5cd_ad,84,330401,0.0-6.0-1.3-0.63,f078aa2862041786868ef9f2ad23336df49386eb98fe8259951830bdf7c3dbfd,5dac7eaa59f37100128372d5,"[101, 89, 8, 93, 102, 9, 98, 144, 66, 25, 26, 247, 101, 15, 154, 42, 5, 222, 30, 173, 72, 145, 45, 73, 105, 4, 173, 48, 219, 68, 13, 113]",5f183ba2066b9c11e73f0302,5dac7eaa59f37100128372d5,5f1958b2a1a99a00081b0184,0.25,lentil,,,9.0,0.0,1.0,1418.9304444007576,f,187.79955559875816,f,test,1.0,,,
,p5Text,85,344273,0.0-6.0-2.3,f078aa2862041786868ef9f2ad23336df49386eb98fe8259951830bdf7c3dbfd,5dac7eaa59f37100128372d5,"[101, 89, 8, 93, 102, 9, 98, 144, 66, 25, 26, 247, 101, 15, 154, 42, 5, 222, 30, 173, 72, 145, 45, 73, 105, 4, 173, 48, 219, 68, 13, 113]",5f183ba2066b9c11e73f0302,5dac7eaa59f37100128372d5,5f1958b2a1a99a00081b0184,0.25,lentil,,,,,,,,,,,,,,
,survey-text,86,398731,0.0-7.0,f078aa2862041786868ef9f2ad23336df49386eb98fe8259951830bdf7c3dbfd,5dac7eaa59f37100128372d5,"[101, 89, 8, 93, 102, 9, 98, 144, 66, 25, 26, 247, 101, 15, 154, 42, 5, 222, 30, 173, 72, 145, 45, 73, 105, 4, 173, 48, 219, 68, 13, 113]",5f183ba2066b9c11e73f0302,5dac7eaa59f37100128372d5,5f1958b2a1a99a00081b0184,0.25,lentil,54452.595000038855,,,,,,,,,,,,,"{""worker_comments"":"" The more letters on the screen at a time, the harder to remember correctly.""}"
,p5Text,87,408124,0.0-8.0,f078aa2862041786868ef9f2ad23336df49386eb98fe8259951830bdf7c3dbfd,5dac7eaa59f37100128372d5,"[101, 89, 8, 93, 102, 9, 98, 144, 66, 25, 26, 247, 101, 15, 154, 42, 5, 222, 30, 173, 72, 145, 45, 73, 105, 4, 173, 48, 219, 68, 13, 113]",5f183ba2066b9c11e73f0302,5dac7eaa59f37100128372d5,5f1958b2a1a99a00081b0184,0.25,lentil,,,,,,,,,,,,,,
1.0,fullscreen,0,2743,0.0-0.0,f078aa2862041786868ef9f2ad23336df49386eb98fe8259951830bdf7c3dbfd,5d91d281412c0300cb50e7ee,"[18, 38, 168, 154, 232, 48, 157, 253, 131, 15, 44, 237, 24, 62, 86, 131, 120, 203, 243, 126, 174, 169, 83, 49, 213, 181, 113, 65, 238, 120, 218, 171]",5f183ba2066b9c11e73f0302,5d91d281412c0300cb50e7ee,5f1951540659710009c47b58,0.28,ktv,,,,,,,,,,,,,,
,external-html,1,7244,0.0-1.0,f078aa2862041786868ef9f2ad23336df49386eb98fe8259951830bdf7c3dbfd,5d91d281412c0300cb50e7ee,"[18, 38, 168, 154, 232, 48, 157, 253, 131, 15, 44, 237, 24, 62, 86, 131, 120, 203, 243, 126, 174, 169, 83, 49, 213, 181, 113, 65, 238, 120, 218, 171]",5f183ba2066b9c11e73f0302,5d91d281412c0300cb50e7ee,5f1951540659710009c47b58,0.28,ktv,4431.6,nickname.html,,,,,,,,,,,,
,p5Text,2,9839,0.0-2.0,f078aa2862041786868ef9f2ad23336df49386eb98fe8259951830bdf7c3dbfd,5d91d281412c0300cb50e7ee,"[18, 38, 168, 154, 232, 48, 157, 253, 131, 15, 44, 237, 24, 62, 86, 131, 120, 203, 243, 126, 174, 169, 83, 49, 213, 181, 113, 65, 238, 120, 218, 171]",5f183ba2066b9c11e73f0302,5d91d281412c0300cb50e7ee,5f1951540659710009c47b58,0.28,ktv,,,,,,,,,,,,,,
,p5Text,3,24456,0.0-3.0-0.0,f078aa2862041786868ef9f2ad23336df49386eb98fe8259951830bdf7c3dbfd,5d91d281412c0300cb50e7ee,"[18, 38, 168, 154, 232, 48, 157, 253, 131, 15, 44, 237, 24, 62, 86, 131, 120, 203, 243, 126, 174, 169, 83, 49, 213, 181, 113, 65, 238, 120, 218, 171]",5f183ba2066b9c11e73f0302,5d91d281412c0300cb50e7ee,5f1951540659710009c47b58,0.28,ktv,,,,,,,,,,,,,,
,p5cd_ad,4,29694,0.0-3.0-1.0-0.0,f078aa2862041786868ef9f2ad23336df49386eb98fe8259951830bdf7c3dbfd,5d91d281412c0300cb50e7ee,"[18, 38, 168, 154, 232, 48, 157, 253, 131, 15, 44, 237, 24, 62, 86, 131, 120, 203, 243, 126, 174, 169, 83, 49, 213, 181, 113, 65, 238, 120, 218, 171]",5f183ba2066b9c11e73f0302,5d91d281412c0300cb50e7ee,5f1951540659710009c47b58,0.28,ktv,,,3.0,1.0,0.0,3302.1023351361982,j,399.0976648638025,j,practice,1.0,,,
,html-keyboard-response,5,30706,0.0-3.0-1.0-1.0,f078aa2862041786868ef9f2ad23336df49386eb98fe8259951830bdf7c3dbfd,5d91d281412c0300cb50e7ee,"[18, 38, 168, 154, 232, 48, 157, 253, 131, 15, 44, 237, 24, 62, 86, 131, 120, 203, 243, 126, 174, 169, 83, 49, 213, 181, 113, 65, 238, 120, 218, 171]",5f183ba2066b9c11e73f0302,5d91d281412c0300cb50e7ee,5f1951540659710009c47b58,0.28,ktv,,,,,,,,,,,,"<div style=""width:150px;height:56px;font-size:30px;text-align:center;"">correct!</div>",,
,p5cd_ad,6,34323,0.0-3.0-1.0-0.1,f078aa2862041786868ef9f2ad23336df49386eb98fe8259951830bdf7c3dbfd,5d91d281412c0300cb50e7ee,"[18, 38, 168, 154, 232, 48, 157, 253, 131, 15, 44, 237, 24, 62, 86, 131, 120, 203, 243, 126, 174, 169, 83, 49, 213, 181, 113, 65, 238, 120, 218, 171]",5f183ba2066b9c11e73f0302,5d91d281412c0300cb50e7ee,5f1951540659710009c47b58,0.28,ktv,,,3.0,0.0,0.0,1608.0496535543352,f,489.45034644566476,f,practice,1.0,,,
,html-keyboard-response,7,35329,0.0-3.0-1.0-1.1,f078aa2862041786868ef9f2ad23336df49386eb98fe8259951830bdf7c3dbfd,5d91d281412c0300cb50e7ee,"[18, 38, 168, 154, 232, 48, 157, 253, 131, 15, 44, 237, 24, 62, 86, 131, 120, 203, 243, 126, 174, 169, 83, 49, 213, 181, 113, 65, 238, 120, 218, 171]",5f183ba2066b9c11e73f0302,5d91d281412c0300cb50e7ee,5f1951540659710009c47b58,0.28,ktv,,,,,,,,,,,,"<div style=""width:150px;height:56px;font-size:30px;text-align:center;"">correct!</div>",,
,p5cd_ad,8,38771,0.0-3.0-1.0-0.2,f078aa2862041786868ef9f2ad23336df49386eb98fe8259951830bdf7c3dbfd,5d91d281412c0300cb50e7ee,"[18, 38, 168, 154, 232, 48, 157, 253, 131, 15, 44, 237, 24, 62, 86, 131, 120, 203, 243, 126, 174, 169, 83, 49, 213, 181, 113, 65, 238, 120, 218, 171]",5f183ba2066b9c11e73f0302,5d91d281412c0300cb50e7ee,5f1951540659710009c47b58,0.28,ktv,,,3.0,1.0,1.0,1806.050915026106,j,119.44908497389406,j,practice,1.0,,,
,html-keyboard-response,9,39791,0.0-3.0-1.0-1.2,f078aa2862041786868ef9f2ad23336df49386eb98fe8259951830bdf7c3dbfd,5d91d281412c0300cb50e7ee,"[18, 38, 168, 154, 232, 48, 157, 253, 131, 15, 44, 237, 24, 62, 86, 131, 120, 203, 243, 126, 174, 169, 83, 49, 213, 181, 113, 65, 238, 120, 218, 171]",5f183ba2066b9c11e73f0302,5d91d281412c0300cb50e7ee,5f1951540659710009c47b58,0.28,ktv,,,,,,,,,,,,"<div style=""width:150px;height:56px;font-size:30px;text-align:center;"">correct!</div>",,
,p5cd_ad,10,43666,0.0-3.0-1.0-0.3,f078aa2862041786868ef9f2ad23336df49386eb98fe8259951830bdf7c3dbfd,5d91d281412c0300cb50e7ee,"[18, 38, 168, 154, 232, 48, 157, 253, 131, 15, 44, 237, 24, 62, 86, 131, 120, 203, 243, 126, 174, 169, 83, 49, 213, 181, 113, 65, 238, 120, 218, 171]",5f183ba2066b9c11e73f0302,5d91d281412c0300cb50e7ee,5f1951540659710009c47b58,0.28,ktv,,,3.0,0.0,1.0,2161.3587968165084,f,198.9412031834945,f,practice,1.0,,,
,html-keyboard-response,11,44695,0.0-3.0-1.0-1.3,f078aa2862041786868ef9f2ad23336df49386eb98fe8259951830bdf7c3dbfd,5d91d281412c0300cb50e7ee,"[18, 38, 168, 154, 232, 48, 157, 253, 131, 15, 44, 237, 24, 62, 86, 131, 120, 203, 243, 126, 174, 169, 83, 49, 213, 181, 113, 65, 238, 120, 218, 171]",5f183ba2066b9c11e73f0302,5d91d281412c0300cb50e7ee,5f1951540659710009c47b58,0.28,ktv,,,,,,,,,,,,"<div style=""width:150px;height:56px;font-size:30px;text-align:center;"">correct!</div>",,
,p5Text,12,52349,0.0-4.0,f078aa2862041786868ef9f2ad23336df49386eb98fe8259951830bdf7c3dbfd,5d91d281412c0300cb50e7ee,"[18, 38, 168, 154, 232, 48, 157, 253, 131, 15, 44, 237, 24, 62, 86, 131, 120, 203, 243, 126, 174, 169, 83, 49, 213, 181, 113, 65, 238, 120, 218, 171]",5f183ba2066b9c11e73f0302,5d91d281412c0300cb50e7ee,5f1951540659710009c47b58,0.28,ktv,,,,,,,,,,,,,,
,p5Text,13,60643,0.0-5.0,f078aa2862041786868ef9f2ad23336df49386eb98fe8259951830bdf7c3dbfd,5d91d281412c0300cb50e7ee,"[18, 38, 168, 154, 232, 48, 157, 253, 131, 15, 44, 237, 24, 62, 86, 131, 120, 203, 243, 126, 174, 169, 83, 49, 213, 181, 113, 65, 238, 120, 218, 171]",5f183ba2066b9c11e73f0302,5d91d281412c0300cb50e7ee,5f1951540659710009c47b58,0.28,ktv,,,,,,,,,,,,,,
,p5Text,14,66904,0.0-6.0-0.0,f078aa2862041786868ef9f2ad23336df49386eb98fe8259951830bdf7c3dbfd,5d91d281412c0300cb50e7ee,"[18, 38, 168, 154, 232, 48, 157, 253, 131, 15, 44, 237, 24, 62, 86, 131, 120, 203, 243, 126, 174, 169, 83, 49, 213, 181, 113, 65, 238, 120, 218, 171]",5f183ba2066b9c11e73f0302,5d91d281412c0300cb50e7ee,5f1951540659710009c47b58,0.28,ktv,,,,,,,,,,,,,,
,p5cd_ad,15,71259,0.0-6.0-1.0-0.0,f078aa2862041786868ef9f2ad23336df49386eb98fe8259951830bdf7c3dbfd,5d91d281412c0300cb50e7ee,"[18, 38, 168, 154, 232, 48, 157, 253, 131, 15, 44, 237, 24, 62, 86, 131, 120, 203, 243, 126, 174, 169, 83, 49, 213, 181, 113, 65, 238, 120, 218, 171]",5f183ba2066b9c11e73f0302,5d91d281412c0300cb50e7ee,5f1951540659710009c47b58,0.28,ktv,,,1.0,1.0,0.0,2693.1990259880113,j,154.90097401198,j,test,1.0,,,
,p5cd_ad,16,74858,0.0-6.0-1.0-0.1,f078aa2862041786868ef9f2ad23336df49386eb98fe8259951830bdf7c3dbfd,5d91d281412c0300cb50e7ee,"[18, 38, 168, 154, 232, 48, 157, 253, 131, 15, 44, 237, 24, 62, 86, 131, 120, 203, 243, 126, 174, 169, 83, 49, 213, 181, 113, 65, 238, 120, 218, 171]",5f183ba2066b9c11e73f0302,5d91d281412c0300cb50e7ee,5f1951540659710009c47b58,0.28,ktv,,,9.0,0.0,0.0,1905.9083088573097,f,187.39169114269316,f,test,1.0,,,
,p5cd_ad,17,84732,0.0-6.0-1.0-0.2,f078aa2862041786868ef9f2ad23336df49386eb98fe8259951830bdf7c3dbfd,5d91d281412c0300cb50e7ee,"[18, 38, 168, 154, 232, 48, 157, 253, 131, 15, 44, 237, 24, 62, 86, 131, 120, 203, 243, 126, 174, 169, 83, 49, 213, 181, 113, 65, 238, 120, 218, 171]",5f183ba2066b9c11e73f0302,5d91d281412c0300cb50e7ee,5f1951540659710009c47b58,0.28,ktv,,,5.0,0.0,0.0,8103.524219894229,j,256.5757801057771,f,test,0.0,,,
,p5cd_ad,18,88745,0.0-6.0-1.0-0.3,f078aa2862041786868ef9f2ad23336df49386eb98fe8259951830bdf7c3dbfd,5d91d281412c0300cb50e7ee,"[18, 38, 168, 154, 232, 48, 157, 253, 131, 15, 44, 237, 24, 62, 86, 131, 120, 203, 243, 126, 174, 169, 83, 49, 213, 181, 113, 65, 238, 120, 218, 171]",5f183ba2066b9c11e73f0302,5d91d281412c0300cb50e7ee,5f1951540659710009c47b58,0.28,ktv,,,9.0,1.0,0.0,2096.745240470016,f,405.15475952997804,j,test,0.0,,,
,p5cd_ad,19,92874,0.0-6.0-1.0-0.4,f078aa2862041786868ef9f2ad23336df49386eb98fe8259951830bdf7c3dbfd,5d91d281412c0300cb50e7ee,"[18, 38, 168, 154, 232, 48, 157, 253, 131, 15, 44, 237, 24, 62, 86, 131, 120, 203, 243, 126, 174, 169, 83, 49, 213, 181, 113, 65, 238, 120, 218, 171]",5f183ba2066b9c11e73f0302,5d91d281412c0300cb50e7ee,5f1951540659710009c47b58,0.28,ktv,,,3.0,0.0,1.0,2328.786838508575,f,291.3131614914164,f,test,1.0,,,
,p5cd_ad,20,95889,0.0-6.0-1.0-0.5,f078aa2862041786868ef9f2ad23336df49386eb98fe8259951830bdf7c3dbfd,5d91d281412c0300cb50e7ee,"[18, 38, 168, 154, 232, 48, 157, 253, 131, 15, 44, 237, 24, 62, 86, 131, 120, 203, 243, 126, 174, 169, 83, 49, 213, 181, 113, 65, 238, 120, 218, 171]",5f183ba2066b9c11e73f0302,5d91d281412c0300cb50e7ee,5f1951540659710009c47b58,0.28,ktv,,,3.0,1.0,1.0,1466.7504156788782,j,39.44958432111889,j,test,1.0,,,
,p5cd_ad,21,98853,0.0-6.0-1.0-0.6,f078aa2862041786868ef9f2ad23336df49386eb98fe8259951830bdf7c3dbfd,5d91d281412c0300cb50e7ee,"[18, 38, 168, 154, 232, 48, 157, 253, 131, 15, 44, 237, 24, 62, 86, 131, 120, 203, 243, 126, 174, 169, 83, 49, 213, 181, 113, 65, 238, 120, 218, 171]",5f183ba2066b9c11e73f0302,5d91d281412c0300cb50e7ee,5f1951540659710009c47b58,0.28,ktv,,,3.0,0.0,0.0,1304.7910923870222,f,146.60890761297196,f,test,1.0,,,
,p5cd_ad,22,103749,0.0-6.0-1.0-0.7,f078aa2862041786868ef9f2ad23336df49386eb98fe8259951830bdf7c3dbfd,5d91d281412c0300cb50e7ee,"[18, 38, 168, 154, 232, 48, 157, 253, 131, 15, 44, 237, 24, 62, 86, 131, 120, 203, 243, 126, 174, 169, 83, 49, 213, 181, 113, 65, 238, 120, 218, 171]",5f183ba2066b9c11e73f0302,5d91d281412c0300cb50e7ee,5f1951540659710009c47b58,0.28,ktv,,,9.0,1.0,1.0,2958.2105800023273,f,421.48941999766976,j,test,0.0,,,
,p5cd_ad,23,107830,0.0-6.0-1.0-0.8,f078aa2862041786868ef9f2ad23336df49386eb98fe8259951830bdf7c3dbfd,5d91d281412c0300cb50e7ee,"[18, 38, 168, 154, 232, 48, 157, 253, 131, 15, 44, 237, 24, 62, 86, 131, 120, 203, 243, 126, 174, 169, 83, 49, 213, 181, 113, 65, 238, 120, 218, 171]",5f183ba2066b9c11e73f0302,5d91d281412c0300cb50e7ee,5f1951540659710009c47b58,0.28,ktv,,,5.0,0.0,1.0,2478.6585163082927,f,97.34148369170725,f,test,1.0,,,
,p5cd_ad,24,111192,0.0-6.0-1.0-0.9,f078aa2862041786868ef9f2ad23336df49386eb98fe8259951830bdf7c3dbfd,5d91d281412c0300cb50e7ee,"[18, 38, 168, 154, 232, 48, 157, 253, 131, 15, 44, 237, 24, 62, 86, 131, 120, 203, 243, 126, 174, 169, 83, 49, 213, 181, 113, 65, 238, 120, 218, 171]",5f183ba2066b9c11e73f0302,5d91d281412c0300cb50e7ee,5f1951540659710009c47b58,0.28,ktv,,,3.0,1.0,0.0,1456.2580983331427,j,399.7419016668573,j,test,1.0,,,
,p5cd_ad,25,115539,0.0-6.0-1.0-0.10,f078aa2862041786868ef9f2ad23336df49386eb98fe8259951830bdf7c3dbfd,5d91d281412c0300cb50e7ee,"[18, 38, 168, 154, 232, 48, 157, 253, 131, 15, 44, 237, 24, 62, 86, 131, 120, 203, 243, 126, 174, 169, 83, 49, 213, 181, 113, 65, 238, 120, 218, 171]",5f183ba2066b9c11e73f0302,5d91d281412c0300cb50e7ee,5f1951540659710009c47b58,0.28,ktv,,,5.0,1.0,0.0,2669.095341497843,j,161.10465850215405,j,test,1.0,,,
,p5cd_ad,26,118838,0.0-6.0-1.0-0.11,f078aa2862041786868ef9f2ad23336df49386eb98fe8259951830bdf7c3dbfd,5d91d281412c0300cb50e7ee,"[18, 38, 168, 154, 232, 48, 157, 253, 131, 15, 44, 237, 24, 62, 86, 131, 120, 203, 243, 126, 174, 169, 83, 49, 213, 181, 113, 65, 238, 120, 218, 171]",5f183ba2066b9c11e73f0302,5d91d281412c0300cb50e7ee,5f1951540659710009c47b58,0.28,ktv,,,1.0,1.0,1.0,1448.1235806722252,j,333.4764193277806,j,test,1.0,,,
,p5cd_ad,27,122268,0.0-6.0-1.0-0.12,f078aa2862041786868ef9f2ad23336df49386eb98fe8259951830bdf7c3dbfd,5d91d281412c0300cb50e7ee,"[18, 38, 168, 154, 232, 48, 157, 253, 131, 15, 44, 237, 24, 62, 86, 131, 120, 203, 243, 126, 174, 169, 83, 49, 213, 181, 113, 65, 238, 120, 218, 171]",5f183ba2066b9c11e73f0302,5d91d281412c0300cb50e7ee,5f1951540659710009c47b58,0.28,ktv,,,9.0,0.0,1.0,1651.5799072682858,f,273.92009273171425,f,test,1.0,,,
,p5cd_ad,28,125947,0.0-6.0-1.0-0.13,f078aa2862041786868ef9f2ad23336df49386eb98fe8259951830bdf7c3dbfd,5d91d281412c0300cb50e7ee,"[18, 38, 168, 154, 232, 48, 157, 253, 131, 15, 44, 237, 24, 62, 86, 131, 120, 203, 243, 126, 174, 169, 83, 49, 213, 181, 113, 65, 238, 120, 218, 171]",5f183ba2066b9c11e73f0302,5d91d281412c0300cb50e7ee,5f1951540659710009c47b58,0.28,ktv,,,1.0,0.0,0.0,1749.107997887957,f,423.1920021120459,f,test,1.0,,,
,p5cd_ad,29,130994,0.0-6.0-1.0-0.14,f078aa2862041786868ef9f2ad23336df49386eb98fe8259951830bdf7c3dbfd,5d91d281412c0300cb50e7ee,"[18, 38, 168, 154, 232, 48, 157, 253, 131, 15, 44, 237, 24, 62, 86, 131, 120, 203, 243, 126, 174, 169, 83, 49, 213, 181, 113, 65, 238, 120, 218, 171]",5f183ba2066b9c11e73f0302,5d91d281412c0300cb50e7ee,5f1951540659710009c47b58,0.28,ktv,,,5.0,1.0,1.0,3304.960554373829,f,238.6394456261769,j,test,0.0,,,
,p5cd_ad,30,133691,0.0-6.0-1.0-0.15,f078aa2862041786868ef9f2ad23336df49386eb98fe8259951830bdf7c3dbfd,5d91d281412c0300cb50e7ee,"[18, 38, 168, 154, 232, 48, 157, 253, 131, 15, 44, 237, 24, 62, 86, 131, 120, 203, 243, 126, 174, 169, 83, 49, 213, 181, 113, 65, 238, 120, 218, 171]",5f183ba2066b9c11e73f0302,5d91d281412c0300cb50e7ee,5f1951540659710009c47b58,0.28,ktv,,,1.0,0.0,1.0,944.1244440693408,f,235.37555593065917,f,test,1.0,,,
,p5Text,31,138770,0.0-6.0-2.0,f078aa2862041786868ef9f2ad23336df49386eb98fe8259951830bdf7c3dbfd,5d91d281412c0300cb50e7ee,"[18, 38, 168, 154, 232, 48, 157, 253, 131, 15, 44, 237, 24, 62, 86, 131, 120, 203, 243, 126, 174, 169, 83, 49, 213, 181, 113, 65, 238, 120, 218, 171]",5f183ba2066b9c11e73f0302,5d91d281412c0300cb50e7ee,5f1951540659710009c47b58,0.28,ktv,,,,,,,,,,,,,,
,p5Text,32,140708,0.0-6.0-0.1,f078aa2862041786868ef9f2ad23336df49386eb98fe8259951830bdf7c3dbfd,5d91d281412c0300cb50e7ee,"[18, 38, 168, 154, 232, 48, 157, 253, 131, 15, 44, 237, 24, 62, 86, 131, 120, 203, 243, 126, 174, 169, 83, 49, 213, 181, 113, 65, 238, 120, 218, 171]",5f183ba2066b9c11e73f0302,5d91d281412c0300cb50e7ee,5f1951540659710009c47b58,0.28,ktv,,,,,,,,,,,,,,
,p5cd_ad,33,144747,0.0-6.0-1.1-0.16,f078aa2862041786868ef9f2ad23336df49386eb98fe8259951830bdf7c3dbfd,5d91d281412c0300cb50e7ee,"[18, 38, 168, 154, 232, 48, 157, 253, 131, 15, 44, 237, 24, 62, 86, 131, 120, 203, 243, 126, 174, 169, 83, 49, 213, 181, 113, 65, 238, 120, 218, 171]",5f183ba2066b9c11e73f0302,5d91d281412c0300cb50e7ee,5f1951540659710009c47b58,0.28,ktv,,,5.0,1.0,0.0,2292.570921088016,j,231.52907891198993,j,test,1.0,,,
,p5cd_ad,34,147879,0.0-6.0-1.1-0.17,f078aa2862041786868ef9f2ad23336df49386eb98fe8259951830bdf7c3dbfd,5d91d281412c0300cb50e7ee,"[18, 38, 168, 154, 232, 48, 157, 253, 131, 15, 44, 237, 24, 62, 86, 131, 120, 203, 243, 126, 174, 169, 83, 49, 213, 181, 113, 65, 238, 120, 218, 171]",5f183ba2066b9c11e73f0302,5d91d281412c0300cb50e7ee,5f1951540659710009c47b58,0.28,ktv,,,1.0,1.0,1.0,1184.1802692482306,j,438.4197307517752,j,test,1.0,,,
,p5cd_ad,35,150443,0.0-6.0-1.1-0.18,f078aa2862041786868ef9f2ad23336df49386eb98fe8259951830bdf7c3dbfd,5d91d281412c0300cb50e7ee,"[18, 38, 168, 154, 232, 48, 157, 253, 131, 15, 44, 237, 24, 62, 86, 131, 120, 203, 243, 126, 174, 169, 83, 49, 213, 181, 113, 65, 238, 120, 218, 171]",5f183ba2066b9c11e73f0302,5d91d281412c0300cb50e7ee,5f1951540659710009c47b58,0.28,ktv,,,3.0,0.0,0.0,843.6901659775758,f,203.70983402244747,f,test,1.0,,,
,p5cd_ad,36,154158,0.0-6.0-1.1-0.19,f078aa2862041786868ef9f2ad23336df49386eb98fe8259951830bdf7c3dbfd,5d91d281412c0300cb50e7ee,"[18, 38, 168, 154, 232, 48, 157, 253, 131, 15, 44, 237, 24, 62, 86, 131, 120, 203, 243, 126, 174, 169, 83, 49, 213, 181, 113, 65, 238, 120, 218, 171]",5f183ba2066b9c11e73f0302,5d91d281412c0300cb50e7ee,5f1951540659710009c47b58,0.28,ktv,,,5.0,0.0,1.0,2149.9454695768654,j,46.054530423134565,f,test,0.0,,,
,p5cd_ad,37,157716,0.0-6.0-1.1-0.20,f078aa2862041786868ef9f2ad23336df49386eb98fe8259951830bdf7c3dbfd,5d91d281412c0300cb50e7ee,"[18, 38, 168, 154, 232, 48, 157, 253, 131, 15, 44, 237, 24, 62, 86, 131, 120, 203, 243, 126, 174, 169, 83, 49, 213, 181, 113, 65, 238, 120, 218, 171]",5f183ba2066b9c11e73f0302,5d91d281412c0300cb50e7ee,5f1951540659710009c47b58,0.28,ktv,,,5.0,0.0,0.0,1848.9267756817862,f,175.57322431821376,f,test,1.0,,,
,p5cd_ad,38,161135,0.0-6.0-1.1-0.21,f078aa2862041786868ef9f2ad23336df49386eb98fe8259951830bdf7c3dbfd,5d91d281412c0300cb50e7ee,"[18, 38, 168, 154, 232, 48, 157, 253, 131, 15, 44, 237, 24, 62, 86, 131, 120, 203, 243, 126, 174, 169, 83, 49, 213, 181, 113, 65, 238, 120, 218, 171]",5f183ba2066b9c11e73f0302,5d91d281412c0300cb50e7ee,5f1951540659710009c47b58,0.28,ktv,,,3.0,1.0,0.0,1699.0582384400186,j,203.64176155999303,j,test,1.0,,,
,p5cd_ad,39,164865,0.0-6.0-1.1-0.22,f078aa2862041786868ef9f2ad23336df49386eb98fe8259951830bdf7c3dbfd,5d91d281412c0300cb50e7ee,"[18, 38, 168, 154, 232, 48, 157, 253, 131, 15, 44, 237, 24, 62, 86, 131, 120, 203, 243, 126, 174, 169, 83, 49, 213, 181, 113, 65, 238, 120, 218, 171]",5f183ba2066b9c11e73f0302,5d91d281412c0300cb50e7ee,5f1951540659710009c47b58,0.28,ktv,,,9.0,0.0,1.0,2179.6108491580817,j,45.18915084190667,f,test,0.0,,,
,p5cd_ad,40,168079,0.0-6.0-1.1-0.23,f078aa2862041786868ef9f2ad23336df49386eb98fe8259951830bdf7c3dbfd,5d91d281412c0300cb50e7ee,"[18, 38, 168, 154, 232, 48, 157, 253, 131, 15, 44, 237, 24, 62, 86, 131, 120, 203, 243, 126, 174, 169, 83, 49, 213, 181, 113, 65, 238, 120, 218, 171]",5f183ba2066b9c11e73f0302,5d91d281412c0300cb50e7ee,5f1951540659710009c47b58,0.28,ktv,,,9.0,1.0,0.0,1500.6136199990287,j,204.88638000097126,j,test,1.0,,,
,p5cd_ad,41,170659,0.0-6.0-1.1-0.24,f078aa2862041786868ef9f2ad23336df49386eb98fe8259951830bdf7c3dbfd,5d91d281412c0300cb50e7ee,"[18, 38, 168, 154, 232, 48, 157, 253, 131, 15, 44, 237, 24, 62, 86, 131, 120, 203, 243, 126, 174, 169, 83, 49, 213, 181, 113, 65, 238, 120, 218, 171]",5f183ba2066b9c11e73f0302,5d91d281412c0300cb50e7ee,5f1951540659710009c47b58,0.28,ktv,,,1.0,1.0,0.0,782.9188661157968,j,292.3811338841915,j,test,1.0,,,
,p5cd_ad,42,173424,0.0-6.0-1.1-0.25,f078aa2862041786868ef9f2ad23336df49386eb98fe8259951830bdf7c3dbfd,5d91d281412c0300cb50e7ee,"[18, 38, 168, 154, 232, 48, 157, 253, 131, 15, 44, 237, 24, 62, 86, 131, 120, 203, 243, 126, 174, 169, 83, 49, 213, 181, 113, 65, 238, 120, 218, 171]",5f183ba2066b9c11e73f0302,5d91d281412c0300cb50e7ee,5f1951540659710009c47b58,0.28,ktv,,,9.0,0.0,0.0,883.1748304123175,f,376.5251695876941,f,test,1.0,,,
,p5cd_ad,43,176355,0.0-6.0-1.1-0.26,f078aa2862041786868ef9f2ad23336df49386eb98fe8259951830bdf7c3dbfd,5d91d281412c0300cb50e7ee,"[18, 38, 168, 154, 232, 48, 157, 253, 131, 15, 44, 237, 24, 62, 86, 131, 120, 203, 243, 126, 174, 169, 83, 49, 213, 181, 113, 65, 238, 120, 218, 171]",5f183ba2066b9c11e73f0302,5d91d281412c0300cb50e7ee,5f1951540659710009c47b58,0.28,ktv,,,5.0,1.0,1.0,994.6337404563965,j,420.7662595435977,j,test,1.0,,,
,p5cd_ad,44,178854,0.0-6.0-1.1-0.27,f078aa2862041786868ef9f2ad23336df49386eb98fe8259951830bdf7c3dbfd,5d91d281412c0300cb50e7ee,"[18, 38, 168, 154, 232, 48, 157, 253, 131, 15, 44, 237, 24, 62, 86, 131, 120, 203, 243, 126, 174, 169, 83, 49, 213, 181, 113, 65, 238, 120, 218, 171]",5f183ba2066b9c11e73f0302,5d91d281412c0300cb50e7ee,5f1951540659710009c47b58,0.28,ktv,,,1.0,0.0,0.0,863.6551574571058,f,123.84484254289418,f,test,1.0,,,
,p5cd_ad,45,182400,0.0-6.0-1.1-0.28,f078aa2862041786868ef9f2ad23336df49386eb98fe8259951830bdf7c3dbfd,5d91d281412c0300cb50e7ee,"[18, 38, 168, 154, 232, 48, 157, 253, 131, 15, 44, 237, 24, 62, 86, 131, 120, 203, 243, 126, 174, 169, 83, 49, 213, 181, 113, 65, 238, 120, 218, 171]",5f183ba2066b9c11e73f0302,5d91d281412c0300cb50e7ee,5f1951540659710009c47b58,0.28,ktv,,,9.0,1.0,1.0,1985.465346508281,f,45.93465349171311,j,test,0.0,,,
,p5cd_ad,46,185547,0.0-6.0-1.1-0.29,f078aa2862041786868ef9f2ad23336df49386eb98fe8259951830bdf7c3dbfd,5d91d281412c0300cb50e7ee,"[18, 38, 168, 154, 232, 48, 157, 253, 131, 15, 44, 237, 24, 62, 86, 131, 120, 203, 243, 126, 174, 169, 83, 49, 213, 181, 113, 65, 238, 120, 218, 171]",5f183ba2066b9c11e73f0302,5d91d281412c0300cb50e7ee,5f1951540659710009c47b58,0.28,ktv,,,3.0,1.0,1.0,1157.80045065991,j,477.5995493400842,j,test,1.0,,,
,p5cd_ad,47,187962,0.0-6.0-1.1-0.30,f078aa2862041786868ef9f2ad23336df49386eb98fe8259951830bdf7c3dbfd,5d91d281412c0300cb50e7ee,"[18, 38, 168, 154, 232, 48, 157, 253, 131, 15, 44, 237, 24, 62, 86, 131, 120, 203, 243, 126, 174, 169, 83, 49, 213, 181, 113, 65, 238, 120, 218, 171]",5f183ba2066b9c11e73f0302,5d91d281412c0300cb50e7ee,5f1951540659710009c47b58,0.28,ktv,,,1.0,0.0,1.0,872.6941876389028,f,27.705812361091375,f,test,1.0,,,
,p5cd_ad,48,190727,0.0-6.0-1.1-0.31,f078aa2862041786868ef9f2ad23336df49386eb98fe8259951830bdf7c3dbfd,5d91d281412c0300cb50e7ee,"[18, 38, 168, 154, 232, 48, 157, 253, 131, 15, 44, 237, 24, 62, 86, 131, 120, 203, 243, 126, 174, 169, 83, 49, 213, 181, 113, 65, 238, 120, 218, 171]",5f183ba2066b9c11e73f0302,5d91d281412c0300cb50e7ee,5f1951540659710009c47b58,0.28,ktv,,,3.0,0.0,1.0,1240.679593748413,f,5.820406251586974,f,test,1.0,,,
,p5Text,49,197162,0.0-6.0-2.1,f078aa2862041786868ef9f2ad23336df49386eb98fe8259951830bdf7c3dbfd,5d91d281412c0300cb50e7ee,"[18, 38, 168, 154, 232, 48, 157, 253, 131, 15, 44, 237, 24, 62, 86, 131, 120, 203, 243, 126, 174, 169, 83, 49, 213, 181, 113, 65, 238, 120, 218, 171]",5f183ba2066b9c11e73f0302,5d91d281412c0300cb50e7ee,5f1951540659710009c47b58,0.28,ktv,,,,,,,,,,,,,,
,p5Text,50,200713,0.0-6.0-0.2,f078aa2862041786868ef9f2ad23336df49386eb98fe8259951830bdf7c3dbfd,5d91d281412c0300cb50e7ee,"[18, 38, 168, 154, 232, 48, 157, 253, 131, 15, 44, 237, 24, 62, 86, 131, 120, 203, 243, 126, 174, 169, 83, 49, 213, 181, 113, 65, 238, 120, 218, 171]",5f183ba2066b9c11e73f0302,5d91d281412c0300cb50e7ee,5f1951540659710009c47b58,0.28,ktv,,,,,,,,,,,,,,
,p5cd_ad,51,205148,0.0-6.0-1.2-0.32,f078aa2862041786868ef9f2ad23336df49386eb98fe8259951830bdf7c3dbfd,5d91d281412c0300cb50e7ee,"[18, 38, 168, 154, 232, 48, 157, 253, 131, 15, 44, 237, 24, 62, 86, 131, 120, 203, 243, 126, 174, 169, 83, 49, 213, 181, 113, 65, 238, 120, 218, 171]",5f183ba2066b9c11e73f0302,5d91d281412c0300cb50e7ee,5f1951540659710009c47b58,0.28,ktv,,,5.0,1.0,0.0,2622.7259374202986,j,306.97406257968396,j,test,1.0,,,
,p5cd_ad,52,209094,0.0-6.0-1.2-0.33,f078aa2862041786868ef9f2ad23336df49386eb98fe8259951830bdf7c3dbfd,5d91d281412c0300cb50e7ee,"[18, 38, 168, 154, 232, 48, 157, 253, 131, 15, 44, 237, 24, 62, 86, 131, 120, 203, 243, 126, 174, 169, 83, 49, 213, 181, 113, 65, 238, 120, 218, 171]",5f183ba2066b9c11e73f0302,5d91d281412c0300cb50e7ee,5f1951540659710009c47b58,0.28,ktv,,,3.0,0.0,0.0,1962.5764822739875,f,478.5235177259892,f,test,1.0,,,
,p5cd_ad,53,212758,0.0-6.0-1.2-0.34,f078aa2862041786868ef9f2ad23336df49386eb98fe8259951830bdf7c3dbfd,5d91d281412c0300cb50e7ee,"[18, 38, 168, 154, 232, 48, 157, 253, 131, 15, 44, 237, 24, 62, 86, 131, 120, 203, 243, 126, 174, 169, 83, 49, 213, 181, 113, 65, 238, 120, 218, 171]",5f183ba2066b9c11e73f0302,5d91d281412c0300cb50e7ee,5f1951540659710009c47b58,0.28,ktv,,,5.0,0.0,0.0,1716.5317085139395,f,434.86829148605466,f,test,1.0,,,
,p5cd_ad,54,217038,0.0-6.0-1.2-0.35,f078aa2862041786868ef9f2ad23336df49386eb98fe8259951830bdf7c3dbfd,5d91d281412c0300cb50e7ee,"[18, 38, 168, 154, 232, 48, 157, 253, 131, 15, 44, 237, 24, 62, 86, 131, 120, 203, 243, 126, 174, 169, 83, 49, 213, 181, 113, 65, 238, 120, 218, 171]",5f183ba2066b9c11e73f0302,5d91d281412c0300cb50e7ee,5f1951540659710009c47b58,0.28,ktv,,,9.0,0.0,0.0,2668.068573576398,f,95.4314264236018,f,test,1.0,,,
,p5cd_ad,55,219403,0.0-6.0-1.2-0.36,f078aa2862041786868ef9f2ad23336df49386eb98fe8259951830bdf7c3dbfd,5d91d281412c0300cb50e7ee,"[18, 38, 168, 154, 232, 48, 157, 253, 131, 15, 44, 237, 24, 62, 86, 131, 120, 203, 243, 126, 174, 169, 83, 49, 213, 181, 113, 65, 238, 120, 218, 171]",5f183ba2066b9c11e73f0302,5d91d281412c0300cb50e7ee,5f1951540659710009c47b58,0.28,ktv,,,3.0,0.0,1.0,765.9540931030933,f,82.74590689688921,f,test,1.0,,,
,p5cd_ad,56,221701,0.0-6.0-1.2-0.37,f078aa2862041786868ef9f2ad23336df49386eb98fe8259951830bdf7c3dbfd,5d91d281412c0300cb50e7ee,"[18, 38, 168, 154, 232, 48, 157, 253, 131, 15, 44, 237, 24, 62, 86, 131, 120, 203, 243, 126, 174, 169, 83, 49, 213, 181, 113, 65, 238, 120, 218, 171]",5f183ba2066b9c11e73f0302,5d91d281412c0300cb50e7ee,5f1951540659710009c47b58,0.28,ktv,,,1.0,1.0,1.0,728.5485249245539,j,58.95147507544607,j,test,1.0,,,
,p5cd_ad,57,224366,0.0-6.0-1.2-0.38,f078aa2862041786868ef9f2ad23336df49386eb98fe8259951830bdf7c3dbfd,5d91d281412c0300cb50e7ee,"[18, 38, 168, 154, 232, 48, 157, 253, 131, 15, 44, 237, 24, 62, 86, 131, 120, 203, 243, 126, 174, 169, 83, 49, 213, 181, 113, 65, 238, 120, 218, 171]",5f183ba2066b9c11e73f0302,5d91d281412c0300cb50e7ee,5f1951540659710009c47b58,0.28,ktv,,,3.0,1.0,1.0,1058.5463444877241,j,100.15365551225841,j,test,1.0,,,
,p5cd_ad,58,227379,0.0-6.0-1.2-0.39,f078aa2862041786868ef9f2ad23336df49386eb98fe8259951830bdf7c3dbfd,5d91d281412c0300cb50e7ee,"[18, 38, 168, 154, 232, 48, 157, 253, 131, 15, 44, 237, 24, 62, 86, 131, 120, 203, 243, 126, 174, 169, 83, 49, 213, 181, 113, 65, 238, 120, 218, 171]",5f183ba2066b9c11e73f0302,5d91d281412c0300cb50e7ee,5f1951540659710009c47b58,0.28,ktv,,,3.0,1.0,0.0,1223.858849495853,j,272.4411505041644,j,test,1.0,,,
,p5cd_ad,59,230611,0.0-6.0-1.2-0.40,f078aa2862041786868ef9f2ad23336df49386eb98fe8259951830bdf7c3dbfd,5d91d281412c0300cb50e7ee,"[18, 38, 168, 154, 232, 48, 157, 253, 131, 15, 44, 237, 24, 62, 86, 131, 120, 203, 243, 126, 174, 169, 83, 49, 213, 181, 113, 65, 238, 120, 218, 171]",5f183ba2066b9c11e73f0302,5d91d281412c0300cb50e7ee,5f1951540659710009c47b58,0.28,ktv,,,5.0,0.0,1.0,1307.9432000575762,f,408.8567999424413,f,test,1.0,,,
,p5cd_ad,60,233341,0.0-6.0-1.2-0.41,f078aa2862041786868ef9f2ad23336df49386eb98fe8259951830bdf7c3dbfd,5d91d281412c0300cb50e7ee,"[18, 38, 168, 154, 232, 48, 157, 253, 131, 15, 44, 237, 24, 62, 86, 131, 120, 203, 243, 126, 174, 169, 83, 49, 213, 181, 113, 65, 238, 120, 218, 171]",5f183ba2066b9c11e73f0302,5d91d281412c0300cb50e7ee,5f1951540659710009c47b58,0.28,ktv,,,1.0,0.0,1.0,787.7352647762746,f,432.26473522372544,f,test,1.0,,,
,p5cd_ad,61,237455,0.0-6.0-1.2-0.42,f078aa2862041786868ef9f2ad23336df49386eb98fe8259951830bdf7c3dbfd,5d91d281412c0300cb50e7ee,"[18, 38, 168, 154, 232, 48, 157, 253, 131, 15, 44, 237, 24, 62, 86, 131, 120, 203, 243, 126, 174, 169, 83, 49, 213, 181, 113, 65, 238, 120, 218, 171]",5f183ba2066b9c11e73f0302,5d91d281412c0300cb50e7ee,5f1951540659710009c47b58,0.28,ktv,,,9.0,1.0,0.0,2423.676253029873,f,177.52374697010964,j,test,0.0,,,
,p5cd_ad,62,240619,0.0-6.0-1.2-0.43,f078aa2862041786868ef9f2ad23336df49386eb98fe8259951830bdf7c3dbfd,5d91d281412c0300cb50e7ee,"[18, 38, 168, 154, 232, 48, 157, 253, 131, 15, 44, 237, 24, 62, 86, 131, 120, 203, 243, 126, 174, 169, 83, 49, 213, 181, 113, 65, 238, 120, 218, 171]",5f183ba2066b9c11e73f0302,5d91d281412c0300cb50e7ee,5f1951540659710009c47b58,0.28,ktv,,,5.0,1.0,1.0,1468.936519822455,j,179.1634801775217,j,test,1.0,,,
,p5cd_ad,63,243283,0.0-6.0-1.2-0.44,f078aa2862041786868ef9f2ad23336df49386eb98fe8259951830bdf7c3dbfd,5d91d281412c0300cb50e7ee,"[18, 38, 168, 154, 232, 48, 157, 253, 131, 15, 44, 237, 24, 62, 86, 131, 120, 203, 243, 126, 174, 169, 83, 49, 213, 181, 113, 65, 238, 120, 218, 171]",5f183ba2066b9c11e73f0302,5d91d281412c0300cb50e7ee,5f1951540659710009c47b58,0.28,ktv,,,1.0,1.0,0.0,857.2729584358749,j,300.92704156413674,j,test,1.0,,,
,p5cd_ad,64,246330,0.0-6.0-1.2-0.45,f078aa2862041786868ef9f2ad23336df49386eb98fe8259951830bdf7c3dbfd,5d91d281412c0300cb50e7ee,"[18, 38, 168, 154, 232, 48, 157, 253, 131, 15, 44, 237, 24, 62, 86, 131, 120, 203, 243, 126, 174, 169, 83, 49, 213, 181, 113, 65, 238, 120, 218, 171]",5f183ba2066b9c11e73f0302,5d91d281412c0300cb50e7ee,5f1951540659710009c47b58,0.28,ktv,,,1.0,0.0,0.0,1039.0194676887477,f,495.8805323112756,f,test,1.0,,,
,p5cd_ad,65,250460,0.0-6.0-1.2-0.46,f078aa2862041786868ef9f2ad23336df49386eb98fe8259951830bdf7c3dbfd,5d91d281412c0300cb50e7ee,"[18, 38, 168, 154, 232, 48, 157, 253, 131, 15, 44, 237, 24, 62, 86, 131, 120, 203, 243, 126, 174, 169, 83, 49, 213, 181, 113, 65, 238, 120, 218, 171]",5f183ba2066b9c11e73f0302,5d91d281412c0300cb50e7ee,5f1951540659710009c47b58,0.28,ktv,,,9.0,0.0,1.0,2511.5991450918955,f,108.10085490811616,f,test,1.0,,,
,p5cd_ad,66,254524,0.0-6.0-1.2-0.47,f078aa2862041786868ef9f2ad23336df49386eb98fe8259951830bdf7c3dbfd,5d91d281412c0300cb50e7ee,"[18, 38, 168, 154, 232, 48, 157, 253, 131, 15, 44, 237, 24, 62, 86, 131, 120, 203, 243, 126, 174, 169, 83, 49, 213, 181, 113, 65, 238, 120, 218, 171]",5f183ba2066b9c11e73f0302,5d91d281412c0300cb50e7ee,5f1951540659710009c47b58,0.28,ktv,,,9.0,1.0,1.0,2356.998074993113,j,190.40192500688136,j,test,1.0,,,
,p5Text,67,260110,0.0-6.0-2.2,f078aa2862041786868ef9f2ad23336df49386eb98fe8259951830bdf7c3dbfd,5d91d281412c0300cb50e7ee,"[18, 38, 168, 154, 232, 48, 157, 253, 131, 15, 44, 237, 24, 62, 86, 131, 120, 203, 243, 126, 174, 169, 83, 49, 213, 181, 113, 65, 238, 120, 218, 171]",5f183ba2066b9c11e73f0302,5d91d281412c0300cb50e7ee,5f1951540659710009c47b58,0.28,ktv,,,,,,,,,,,,,,
,p5Text,68,262522,0.0-6.0-0.3,f078aa2862041786868ef9f2ad23336df49386eb98fe8259951830bdf7c3dbfd,5d91d281412c0300cb50e7ee,"[18, 38, 168, 154, 232, 48, 157, 253, 131, 15, 44, 237, 24, 62, 86, 131, 120, 203, 243, 126, 174, 169, 83, 49, 213, 181, 113, 65, 238, 120, 218, 171]",5f183ba2066b9c11e73f0302,5d91d281412c0300cb50e7ee,5f1951540659710009c47b58,0.28,ktv,,,,,,,,,,,,,,
,p5cd_ad,69,267479,0.0-6.0-1.3-0.48,f078aa2862041786868ef9f2ad23336df49386eb98fe8259951830bdf7c3dbfd,5d91d281412c0300cb50e7ee,"[18, 38, 168, 154, 232, 48, 157, 253, 131, 15, 44, 237, 24, 62, 86, 131, 120, 203, 243, 126, 174, 169, 83, 49, 213, 181, 113, 65, 238, 120, 218, 171]",5f183ba2066b9c11e73f0302,5d91d281412c0300cb50e7ee,5f1951540659710009c47b58,0.28,ktv,,,1.0,0.0,1.0,3140.3920288017252,f,309.00797119829804,f,test,1.0,,,
,p5cd_ad,70,270395,0.0-6.0-1.3-0.49,f078aa2862041786868ef9f2ad23336df49386eb98fe8259951830bdf7c3dbfd,5d91d281412c0300cb50e7ee,"[18, 38, 168, 154, 232, 48, 157, 253, 131, 15, 44, 237, 24, 62, 86, 131, 120, 203, 243, 126, 174, 169, 83, 49, 213, 181, 113, 65, 238, 120, 218, 171]",5f183ba2066b9c11e73f0302,5d91d281412c0300cb50e7ee,5f1951540659710009c47b58,0.28,ktv,,,1.0,1.0,0.0,942.8000866634538,j,468.2999133365229,j,test,1.0,,,
,p5cd_ad,71,273674,0.0-6.0-1.3-0.50,f078aa2862041786868ef9f2ad23336df49386eb98fe8259951830bdf7c3dbfd,5d91d281412c0300cb50e7ee,"[18, 38, 168, 154, 232, 48, 157, 253, 131, 15, 44, 237, 24, 62, 86, 131, 120, 203, 243, 126, 174, 169, 83, 49, 213, 181, 113, 65, 238, 120, 218, 171]",5f183ba2066b9c11e73f0302,5d91d281412c0300cb50e7ee,5f1951540659710009c47b58,0.28,ktv,,,3.0,1.0,0.0,1388.7476563071832,j,377.2523436928168,j,test,1.0,,,
,p5cd_ad,72,276039,0.0-6.0-1.3-0.51,f078aa2862041786868ef9f2ad23336df49386eb98fe8259951830bdf7c3dbfd,5d91d281412c0300cb50e7ee,"[18, 38, 168, 154, 232, 48, 157, 253, 131, 15, 44, 237, 24, 62, 86, 131, 120, 203, 243, 126, 174, 169, 83, 49, 213, 181, 113, 65, 238, 120, 218, 171]",5f183ba2066b9c11e73f0302,5d91d281412c0300cb50e7ee,5f1951540659710009c47b58,0.28,ktv,,,1.0,0.0,0.0,843.9998875785386,f,6.600112421438098,f,test,1.0,,,
,p5cd_ad,73,280036,0.0-6.0-1.3-0.52,f078aa2862041786868ef9f2ad23336df49386eb98fe8259951830bdf7c3dbfd,5d91d281412c0300cb50e7ee,"[18, 38, 168, 154, 232, 48, 157, 253, 131, 15, 44, 237, 24, 62, 86, 131, 120, 203, 243, 126, 174, 169, 83, 49, 213, 181, 113, 65, 238, 120, 218, 171]",5f183ba2066b9c11e73f0302,5d91d281412c0300cb50e7ee,5f1951540659710009c47b58,0.28,ktv,,,9.0,1.0,1.0,2071.4033485829714,j,416.396651417017,j,test,1.0,,,
,p5cd_ad,74,282583,0.0-6.0-1.3-0.53,f078aa2862041786868ef9f2ad23336df49386eb98fe8259951830bdf7c3dbfd,5d91d281412c0300cb50e7ee,"[18, 38, 168, 154, 232, 48, 157, 253, 131, 15, 44, 237, 24, 62, 86, 131, 120, 203, 243, 126, 174, 169, 83, 49, 213, 181, 113, 65, 238, 120, 218, 171]",5f183ba2066b9c11e73f0302,5d91d281412c0300cb50e7ee,5f1951540659710009c47b58,0.28,ktv,,,3.0,0.0,1.0,1036.0701780213276,f,3.32982197869569,f,test,1.0,,,
,p5cd_ad,75,285265,0.0-6.0-1.3-0.54,f078aa2862041786868ef9f2ad23336df49386eb98fe8259951830bdf7c3dbfd,5d91d281412c0300cb50e7ee,"[18, 38, 168, 154, 232, 48, 157, 253, 131, 15, 44, 237, 24, 62, 86, 131, 120, 203, 243, 126, 174, 169, 83, 49, 213, 181, 113, 65, 238, 120, 218, 171]",5f183ba2066b9c11e73f0302,5d91d281412c0300cb50e7ee,5f1951540659710009c47b58,0.28,ktv,,,1.0,1.0,1.0,753.3703317614272,j,411.1296682385728,j,test,1.0,,,
,p5cd_ad,76,291426,0.0-6.0-1.3-0.55,f078aa2862041786868ef9f2ad23336df49386eb98fe8259951830bdf7c3dbfd,5d91d281412c0300cb50e7ee,"[18, 38, 168, 154, 232, 48, 157, 253, 131, 15, 44, 237, 24, 62, 86, 131, 120, 203, 243, 126, 174, 169, 83, 49, 213, 181, 113, 65, 238, 120, 218, 171]",5f183ba2066b9c11e73f0302,5d91d281412c0300cb50e7ee,5f1951540659710009c47b58,0.28,ktv,,,9.0,0.0,1.0,4607.196557914605,f,48.50344208534807,f,test,1.0,,,
,p5cd_ad,77,295007,0.0-6.0-1.3-0.56,f078aa2862041786868ef9f2ad23336df49386eb98fe8259951830bdf7c3dbfd,5d91d281412c0300cb50e7ee,"[18, 38, 168, 154, 232, 48, 157, 253, 131, 15, 44, 237, 24, 62, 86, 131, 120, 203, 243, 126, 174, 169, 83, 49, 213, 181, 113, 65, 238, 120, 218, 171]",5f183ba2066b9c11e73f0302,5d91d281412c0300cb50e7ee,5f1951540659710009c47b58,0.28,ktv,,,9.0,1.0,0.0,1908.3573917634785,j,153.14260823652148,j,test,1.0,,,
,p5cd_ad,78,297803,0.0-6.0-1.3-0.57,f078aa2862041786868ef9f2ad23336df49386eb98fe8259951830bdf7c3dbfd,5d91d281412c0300cb50e7ee,"[18, 38, 168, 154, 232, 48, 157, 253, 131, 15, 44, 237, 24, 62, 86, 131, 120, 203, 243, 126, 174, 169, 83, 49, 213, 181, 113, 65, 238, 120, 218, 171]",5f183ba2066b9c11e73f0302,5d91d281412c0300cb50e7ee,5f1951540659710009c47b58,0.28,ktv,,,9.0,0.0,0.0,1037.0036972567323,f,248.2963027432561,f,test,1.0,,,
,p5cd_ad,79,300653,0.0-6.0-1.3-0.58,f078aa2862041786868ef9f2ad23336df49386eb98fe8259951830bdf7c3dbfd,5d91d281412c0300cb50e7ee,"[18, 38, 168, 154, 232, 48, 157, 253, 131, 15, 44, 237, 24, 62, 86, 131, 120, 203, 243, 126, 174, 169, 83, 49, 213, 181, 113, 65, 238, 120, 218, 171]",5f183ba2066b9c11e73f0302,5d91d281412c0300cb50e7ee,5f1951540659710009c47b58,0.28,ktv,,,5.0,0.0,0.0,883.2464952797163,f,456.05350472033024,f,test,1.0,,,
,p5cd_ad,80,303765,0.0-6.0-1.3-0.59,f078aa2862041786868ef9f2ad23336df49386eb98fe8259951830bdf7c3dbfd,5d91d281412c0300cb50e7ee,"[18, 38, 168, 154, 232, 48, 157, 253, 131, 15, 44, 237, 24, 62, 86, 131, 120, 203, 243, 126, 174, 169, 83, 49, 213, 181, 113, 65, 238, 120, 218, 171]",5f183ba2066b9c11e73f0302,5d91d281412c0300cb50e7ee,5f1951540659710009c47b58,0.28,ktv,,,5.0,1.0,0.0,1221.6953866056865,j,374.4046133942902,j,test,1.0,,,
,p5cd_ad,81,306280,0.0-6.0-1.3-0.60,f078aa2862041786868ef9f2ad23336df49386eb98fe8259951830bdf7c3dbfd,5d91d281412c0300cb50e7ee,"[18, 38, 168, 154, 232, 48, 157, 253, 131, 15, 44, 237, 24, 62, 86, 131, 120, 203, 243, 126, 174, 169, 83, 49, 213, 181, 113, 65, 238, 120, 218, 171]",5f183ba2066b9c11e73f0302,5d91d281412c0300cb50e7ee,5f1951540659710009c47b58,0.28,ktv,,,3.0,1.0,1.0,959.2577174367616,j,39.14228256326169,j,test,1.0,,,
,p5cd_ad,82,309044,0.0-6.0-1.3-0.61,f078aa2862041786868ef9f2ad23336df49386eb98fe8259951830bdf7c3dbfd,5d91d281412c0300cb50e7ee,"[18, 38, 168, 154, 232, 48, 157, 253, 131, 15, 44, 237, 24, 62, 86, 131, 120, 203, 243, 126, 174, 169, 83, 49, 213, 181, 113, 65, 238, 120, 218, 171]",5f183ba2066b9c11e73f0302,5d91d281412c0300cb50e7ee,5f1951540659710009c47b58,0.28,ktv,,,3.0,0.0,0.0,877.1855119100073,f,370.71448809001595,f,test,1.0,,,
,p5cd_ad,83,312459,0.0-6.0-1.3-0.62,f078aa2862041786868ef9f2ad23336df49386eb98fe8259951830bdf7c3dbfd,5d91d281412c0300cb50e7ee,"[18, 38, 168, 154, 232, 48, 157, 253, 131, 15, 44, 237, 24, 62, 86, 131, 120, 203, 243, 126, 174, 169, 83, 49, 213, 181, 113, 65, 238, 120, 218, 171]",5f183ba2066b9c11e73f0302,5d91d281412c0300cb50e7ee,5f1951540659710009c47b58,0.28,ktv,,,5.0,0.0,1.0,1575.7580011855462,f,328.6419988144189,f,test,1.0,,,
,p5cd_ad,84,315473,0.0-6.0-1.3-0.63,f078aa2862041786868ef9f2ad23336df49386eb98fe8259951830bdf7c3dbfd,5d91d281412c0300cb50e7ee,"[18, 38, 168, 154, 232, 48, 157, 253, 131, 15, 44, 237, 24, 62, 86, 131, 120, 203, 243, 126, 174, 169, 83, 49, 213, 181, 113, 65, 238, 120, 218, 171]",5f183ba2066b9c11e73f0302,5d91d281412c0300cb50e7ee,5f1951540659710009c47b58,0.28,ktv,,,5.0,1.0,1.0,1220.9110846351832,j,283.5889153648168,j,test,1.0,,,
,p5Text,85,322490,0.0-6.0-2.3,f078aa2862041786868ef9f2ad23336df49386eb98fe8259951830bdf7c3dbfd,5d91d281412c0300cb50e7ee,"[18, 38, 168, 154, 232, 48, 157, 253, 131, 15, 44, 237, 24, 62, 86, 131, 120, 203, 243, 126, 174, 169, 83, 49, 213, 181, 113, 65, 238, 120, 218, 171]",5f183ba2066b9c11e73f0302,5d91d281412c0300cb50e7ee,5f1951540659710009c47b58,0.28,ktv,,,,,,,,,,,,,,
,survey-text,86,360256,0.0-7.0,f078aa2862041786868ef9f2ad23336df49386eb98fe8259951830bdf7c3dbfd,5d91d281412c0300cb50e7ee,"[18, 38, 168, 154, 232, 48, 157, 253, 131, 15, 44, 237, 24, 62, 86, 131, 120, 203, 243, 126, 174, 169, 83, 49, 213, 181, 113, 65, 238, 120, 218, 171]",5f183ba2066b9c11e73f0302,5d91d281412c0300cb50e7ee,5f1951540659710009c47b58,0.28,ktv,37758.0,,,,,,,,,,,,,"{""worker_comments"":"" I enjoyed the experiment. It was very straightforward.""}"
,p5Text,87,364832,0.0-8.0,f078aa2862041786868ef9f2ad23336df49386eb98fe8259951830bdf7c3dbfd,5d91d281412c0300cb50e7ee,"[18, 38, 168, 154, 232, 48, 157, 253, 131, 15, 44, 237, 24, 62, 86, 131, 120, 203, 243, 126, 174, 169, 83, 49, 213, 181, 113, 65, 238, 120, 218, 171]",5f183ba2066b9c11e73f0302,5d91d281412c0300cb50e7ee,5f1951540659710009c47b58,0.28,ktv,,,,,,,,,,,,,,
1.0,fullscreen,0,3270,0.0-0.0,f078aa2862041786868ef9f2ad23336df49386eb98fe8259951830bdf7c3dbfd,5d9b60eb027b56001220d84e,"[19, 221, 189, 26, 39, 172, 184, 98, 108, 25, 96, 104, 250, 4, 252, 47, 239, 191, 72, 222, 221, 13, 84, 114, 95, 130, 128, 184, 14, 43, 239, 181]",5f183ba2066b9c11e73f0302,5d9b60eb027b56001220d84e,5f19515537138c000c14ff2f,0.26,Kasperlad,,,,,,,,,,,,,,
,external-html,1,39157,0.0-1.0,f078aa2862041786868ef9f2ad23336df49386eb98fe8259951830bdf7c3dbfd,5d9b60eb027b56001220d84e,"[19, 221, 189, 26, 39, 172, 184, 98, 108, 25, 96, 104, 250, 4, 252, 47, 239, 191, 72, 222, 221, 13, 84, 114, 95, 130, 128, 184, 14, 43, 239, 181]",5f183ba2066b9c11e73f0302,5d9b60eb027b56001220d84e,5f19515537138c000c14ff2f,0.26,Kasperlad,35844.229999987874,nickname.html,,,,,,,,,,,,
,p5Text,2,42765,0.0-2.0,f078aa2862041786868ef9f2ad23336df49386eb98fe8259951830bdf7c3dbfd,5d9b60eb027b56001220d84e,"[19, 221, 189, 26, 39, 172, 184, 98, 108, 25, 96, 104, 250, 4, 252, 47, 239, 191, 72, 222, 221, 13, 84, 114, 95, 130, 128, 184, 14, 43, 239, 181]",5f183ba2066b9c11e73f0302,5d9b60eb027b56001220d84e,5f19515537138c000c14ff2f,0.26,Kasperlad,,,,,,,,,,,,,,
,p5Text,3,58183,0.0-3.0-0.0,f078aa2862041786868ef9f2ad23336df49386eb98fe8259951830bdf7c3dbfd,5d9b60eb027b56001220d84e,"[19, 221, 189, 26, 39, 172, 184, 98, 108, 25, 96, 104, 250, 4, 252, 47, 239, 191, 72, 222, 221, 13, 84, 114, 95, 130, 128, 184, 14, 43, 239, 181]",5f183ba2066b9c11e73f0302,5d9b60eb027b56001220d84e,5f19515537138c000c14ff2f,0.26,Kasperlad,,,,,,,,,,,,,,
,p5cd_ad,4,61687,0.0-3.0-1.0-0.0,f078aa2862041786868ef9f2ad23336df49386eb98fe8259951830bdf7c3dbfd,5d9b60eb027b56001220d84e,"[19, 221, 189, 26, 39, 172, 184, 98, 108, 25, 96, 104, 250, 4, 252, 47, 239, 191, 72, 222, 221, 13, 84, 114, 95, 130, 128, 184, 14, 43, 239, 181]",5f183ba2066b9c11e73f0302,5d9b60eb027b56001220d84e,5f19515537138c000c14ff2f,0.26,Kasperlad,,,3.0,0.0,1.0,1710.047433967702,f,273.31756602507085,f,practice,1.0,,,
,html-keyboard-response,5,62694,0.0-3.0-1.0-1.0,f078aa2862041786868ef9f2ad23336df49386eb98fe8259951830bdf7c3dbfd,5d9b60eb027b56001220d84e,"[19, 221, 189, 26, 39, 172, 184, 98, 108, 25, 96, 104, 250, 4, 252, 47, 239, 191, 72, 222, 221, 13, 84, 114, 95, 130, 128, 184, 14, 43, 239, 181]",5f183ba2066b9c11e73f0302,5d9b60eb027b56001220d84e,5f19515537138c000c14ff2f,0.26,Kasperlad,,,,,,,,,,,,"<div style=""width:150px;height:56px;font-size:30px;text-align:center;"">correct!</div>",,
,p5cd_ad,6,65921,0.0-3.0-1.0-0.1,f078aa2862041786868ef9f2ad23336df49386eb98fe8259951830bdf7c3dbfd,5d9b60eb027b56001220d84e,"[19, 221, 189, 26, 39, 172, 184, 98, 108, 25, 96, 104, 250, 4, 252, 47, 239, 191, 72, 222, 221, 13, 84, 114, 95, 130, 128, 184, 14, 43, 239, 181]",5f183ba2066b9c11e73f0302,5d9b60eb027b56001220d84e,5f19515537138c000c14ff2f,0.26,Kasperlad,,,3.0,0.0,0.0,1378.9535747491755,f,336.7914252448827,f,practice,1.0,,,
,html-keyboard-response,7,66925,0.0-3.0-1.0-1.1,f078aa2862041786868ef9f2ad23336df49386eb98fe8259951830bdf7c3dbfd,5d9b60eb027b56001220d84e,"[19, 221, 189, 26, 39, 172, 184, 98, 108, 25, 96, 104, 250, 4, 252, 47, 239, 191, 72, 222, 221, 13, 84, 114, 95, 130, 128, 184, 14, 43, 239, 181]",5f183ba2066b9c11e73f0302,5d9b60eb027b56001220d84e,5f19515537138c000c14ff2f,0.26,Kasperlad,,,,,,,,,,,,"<div style=""width:150px;height:56px;font-size:30px;text-align:center;"">correct!</div>",,
,p5cd_ad,8,70204,0.0-3.0-1.0-0.2,f078aa2862041786868ef9f2ad23336df49386eb98fe8259951830bdf7c3dbfd,5d9b60eb027b56001220d84e,"[19, 221, 189, 26, 39, 172, 184, 98, 108, 25, 96, 104, 250, 4, 252, 47, 239, 191, 72, 222, 221, 13, 84, 114, 95, 130, 128, 184, 14, 43, 239, 181]",5f183ba2066b9c11e73f0302,5d9b60eb027b56001220d84e,5f19515537138c000c14ff2f,0.26,Kasperlad,,,3.0,1.0,0.0,1507.970905979164,j,254.48909401893616,j,practice,1.0,,,
,html-keyboard-response,9,71210,0.0-3.0-1.0-1.2,f078aa2862041786868ef9f2ad23336df49386eb98fe8259951830bdf7c3dbfd,5d9b60eb027b56001220d84e,"[19, 221, 189, 26, 39, 172, 184, 98, 108, 25, 96, 104, 250, 4, 252, 47, 239, 191, 72, 222, 221, 13, 84, 114, 95, 130, 128, 184, 14, 43, 239, 181]",5f183ba2066b9c11e73f0302,5d9b60eb027b56001220d84e,5f19515537138c000c14ff2f,0.26,Kasperlad,,,,,,,,,,,,"<div style=""width:150px;height:56px;font-size:30px;text-align:center;"">correct!</div>",,
,p5cd_ad,10,73671,0.0-3.0-1.0-0.3,f078aa2862041786868ef9f2ad23336df49386eb98fe8259951830bdf7c3dbfd,5d9b60eb027b56001220d84e,"[19, 221, 189, 26, 39, 172, 184, 98, 108, 25, 96, 104, 250, 4, 252, 47, 239, 191, 72, 222, 221, 13, 84, 114, 95, 130, 128, 184, 14, 43, 239, 181]",5f183ba2066b9c11e73f0302,5d9b60eb027b56001220d84e,5f19515537138c000c14ff2f,0.26,Kasperlad,,,3.0,1.0,1.0,868.7107974255923,j,80.15920256730169,j,practice,1.0,,,
,html-keyboard-response,11,74677,0.0-3.0-1.0-1.3,f078aa2862041786868ef9f2ad23336df49386eb98fe8259951830bdf7c3dbfd,5d9b60eb027b56001220d84e,"[19, 221, 189, 26, 39, 172, 184, 98, 108, 25, 96, 104, 250, 4, 252, 47, 239, 191, 72, 222, 221, 13, 84, 114, 95, 130, 128, 184, 14, 43, 239, 181]",5f183ba2066b9c11e73f0302,5d9b60eb027b56001220d84e,5f19515537138c000c14ff2f,0.26,Kasperlad,,,,,,,,,,,,"<div style=""width:150px;height:56px;font-size:30px;text-align:center;"">correct!</div>",,
,p5Text,12,77851,0.0-4.0,f078aa2862041786868ef9f2ad23336df49386eb98fe8259951830bdf7c3dbfd,5d9b60eb027b56001220d84e,"[19, 221, 189, 26, 39, 172, 184, 98, 108, 25, 96, 104, 250, 4, 252, 47, 239, 191, 72, 222, 221, 13, 84, 114, 95, 130, 128, 184, 14, 43, 239, 181]",5f183ba2066b9c11e73f0302,5d9b60eb027b56001220d84e,5f19515537138c000c14ff2f,0.26,Kasperlad,,,,,,,,,,,,,,
,p5Text,13,86265,0.0-5.0,f078aa2862041786868ef9f2ad23336df49386eb98fe8259951830bdf7c3dbfd,5d9b60eb027b56001220d84e,"[19, 221, 189, 26, 39, 172, 184, 98, 108, 25, 96, 104, 250, 4, 252, 47, 239, 191, 72, 222, 221, 13, 84, 114, 95, 130, 128, 184, 14, 43, 239, 181]",5f183ba2066b9c11e73f0302,5d9b60eb027b56001220d84e,5f19515537138c000c14ff2f,0.26,Kasperlad,,,,,,,,,,,,,,
,p5Text,14,88811,0.0-6.0-0.0,f078aa2862041786868ef9f2ad23336df49386eb98fe8259951830bdf7c3dbfd,5d9b60eb027b56001220d84e,"[19, 221, 189, 26, 39, 172, 184, 98, 108, 25, 96, 104, 250, 4, 252, 47, 239, 191, 72, 222, 221, 13, 84, 114, 95, 130, 128, 184, 14, 43, 239, 181]",5f183ba2066b9c11e73f0302,5d9b60eb027b56001220d84e,5f19515537138c000c14ff2f,0.26,Kasperlad,,,,,,,,,,,,,,
,p5cd_ad,15,91752,0.0-6.0-1.0-0.0,f078aa2862041786868ef9f2ad23336df49386eb98fe8259951830bdf7c3dbfd,5d9b60eb027b56001220d84e,"[19, 221, 189, 26, 39, 172, 184, 98, 108, 25, 96, 104, 250, 4, 252, 47, 239, 191, 72, 222, 221, 13, 84, 114, 95, 130, 128, 184, 14, 43, 239, 181]",5f183ba2066b9c11e73f0302,5d9b60eb027b56001220d84e,5f19515537138c000c14ff2f,0.26,Kasperlad,,,5.0,0.0,1.0,1202.3143341357354,j,212.00566587504,f,test,0.0,,,
,p5cd_ad,16,95351,0.0-6.0-1.0-0.1,f078aa2862041786868ef9f2ad23336df49386eb98fe8259951830bdf7c3dbfd,5d9b60eb027b56001220d84e,"[19, 221, 189, 26, 39, 172, 184, 98, 108, 25, 96, 104, 250, 4, 252, 47, 239, 191, 72, 222, 221, 13, 84, 114, 95, 130, 128, 184, 14, 43, 239, 181]",5f183ba2066b9c11e73f0302,5d9b60eb027b56001220d84e,5f19515537138c000c14ff2f,0.26,Kasperlad,,,9.0,0.0,0.0,1697.6655154721811,f,391.3744845194742,f,test,1.0,,,
,p5cd_ad,17,99386,0.0-6.0-1.0-0.2,f078aa2862041786868ef9f2ad23336df49386eb98fe8259951830bdf7c3dbfd,5d9b60eb027b56001220d84e,"[19, 221, 189, 26, 39, 172, 184, 98, 108, 25, 96, 104, 250, 4, 252, 47, 239, 191, 72, 222, 221, 13, 84, 114, 95, 130, 128, 184, 14, 43, 239, 181]",5f183ba2066b9c11e73f0302,5d9b60eb027b56001220d84e,5f19515537138c000c14ff2f,0.26,Kasperlad,,,5.0,1.0,1.0,2207.885165058542,j,321.0198349552229,j,test,1.0,,,
,p5cd_ad,18,102518,0.0-6.0-1.0-0.3,f078aa2862041786868ef9f2ad23336df49386eb98fe8259951830bdf7c3dbfd,5d9b60eb027b56001220d84e,"[19, 221, 189, 26, 39, 172, 184, 98, 108, 25, 96, 104, 250, 4, 252, 47, 239, 191, 72, 222, 221, 13, 84, 114, 95, 130, 128, 184, 14, 43, 239, 181]",5f183ba2066b9c11e73f0302,5d9b60eb027b56001220d84e,5f19515537138c000c14ff2f,0.26,Kasperlad,,,3.0,1.0,1.0,1350.038186297752,j,264.8268137127161,j,test,1.0,,,
,p5cd_ad,19,105353,0.0-6.0-1.0-0.4,f078aa2862041786868ef9f2ad23336df49386eb98fe8259951830bdf7c3dbfd,5d9b60eb027b56001220d84e,"[19, 221, 189, 26, 39, 172, 184, 98, 108, 25, 96, 104, 250, 4, 252, 47, 239, 191, 72, 222, 221, 13, 84, 114, 95, 130, 128, 184, 14, 43, 239, 181]",5f183ba2066b9c11e73f0302,5d9b60eb027b56001220d84e,5f19515537138c000c14ff2f,0.26,Kasperlad,,,1.0,0.0,1.0,1261.3860577403102,f,62.17894225846976,f,test,1.0,,,
,p5cd_ad,20,107886,0.0-6.0-1.0-0.5,f078aa2862041786868ef9f2ad23336df49386eb98fe8259951830bdf7c3dbfd,5d9b60eb027b56001220d84e,"[19, 221, 189, 26, 39, 172, 184, 98, 108, 25, 96, 104, 250, 4, 252, 47, 239, 191, 72, 222, 221, 13, 84, 114, 95, 130, 128, 184, 14, 43, 239, 181]",5f183ba2066b9c11e73f0302,5d9b60eb027b56001220d84e,5f19515537138c000c14ff2f,0.26,Kasperlad,,,1.0,1.0,1.0,799.438759626355,j,212.46124035678804,j,test,1.0,,,
,p5cd_ad,21,111818,0.0-6.0-1.0-0.6,f078aa2862041786868ef9f2ad23336df49386eb98fe8259951830bdf7c3dbfd,5d9b60eb027b56001220d84e,"[19, 221, 189, 26, 39, 172, 184, 98, 108, 25, 96, 104, 250, 4, 252, 47, 239, 191, 72, 222, 221, 13, 84, 114, 95, 130, 128, 184, 14, 43, 239, 181]",5f183ba2066b9c11e73f0302,5d9b60eb027b56001220d84e,5f19515537138c000c14ff2f,0.26,Kasperlad,,,9.0,1.0,0.0,1945.8889877423644,j,472.991012269631,j,test,1.0,,,
,p5cd_ad,22,114385,0.0-6.0-1.0-0.7,f078aa2862041786868ef9f2ad23336df49386eb98fe8259951830bdf7c3dbfd,5d9b60eb027b56001220d84e,"[19, 221, 189, 26, 39, 172, 184, 98, 108, 25, 96, 104, 250, 4, 252, 47, 239, 191, 72, 222, 221, 13, 84, 114, 95, 130, 128, 184, 14, 43, 239, 181]",5f183ba2066b9c11e73f0302,5d9b60eb027b56001220d84e,5f19515537138c000c14ff2f,0.26,Kasperlad,,,9.0,0.0,1.0,1008.3748480828945,f,51.265151938423514,f,test,1.0,,,
,p5cd_ad,23,117334,0.0-6.0-1.0-0.8,f078aa2862041786868ef9f2ad23336df49386eb98fe8259951830bdf7c3dbfd,5d9b60eb027b56001220d84e,"[19, 221, 189, 26, 39, 172, 184, 98, 108, 25, 96, 104, 250, 4, 252, 47, 239, 191, 72, 222, 221, 13, 84, 114, 95, 130, 128, 184, 14, 43, 239, 181]",5f183ba2066b9c11e73f0302,5d9b60eb027b56001220d84e,5f19515537138c000c14ff2f,0.26,Kasperlad,,,3.0,0.0,1.0,1026.130809856113,f,405.30919015873224,f,test,1.0,,,
,p5cd_ad,24,119720,0.0-6.0-1.0-0.9,f078aa2862041786868ef9f2ad23336df49386eb98fe8259951830bdf7c3dbfd,5d9b60eb027b56001220d84e,"[19, 221, 189, 26, 39, 172, 184, 98, 108, 25, 96, 104, 250, 4, 252, 47, 239, 191, 72, 222, 221, 13, 84, 114, 95, 130, 128, 184, 14, 43, 239, 181]",5f183ba2066b9c11e73f0302,5d9b60eb027b56001220d84e,5f19515537138c000c14ff2f,0.26,Kasperlad,,,5.0,1.0,0.0,839.3430200521834,j,40.47697992064059,j,test,1.0,,,
,p5cd_ad,25,122700,0.0-6.0-1.0-0.10,f078aa2862041786868ef9f2ad23336df49386eb98fe8259951830bdf7c3dbfd,5d9b60eb027b56001220d84e,"[19, 221, 189, 26, 39, 172, 184, 98, 108, 25, 96, 104, 250, 4, 252, 47, 239, 191, 72, 222, 221, 13, 84, 114, 95, 130, 128, 184, 14, 43, 239, 181]",5f183ba2066b9c11e73f0302,5d9b60eb027b56001220d84e,5f19515537138c000c14ff2f,0.26,Kasperlad,,,9.0,1.0,1.0,1351.8427501840051,f,121.9272498274222,j,test,0.0,,,
,p5cd_ad,26,124903,0.0-6.0-1.0-0.11,f078aa2862041786868ef9f2ad23336df49386eb98fe8259951830bdf7c3dbfd,5d9b60eb027b56001220d84e,"[19, 221, 189, 26, 39, 172, 184, 98, 108, 25, 96, 104, 250, 4, 252, 47, 239, 191, 72, 222, 221, 13, 84, 114, 95, 130, 128, 184, 14, 43, 239, 181]",5f183ba2066b9c11e73f0302,5d9b60eb027b56001220d84e,5f19515537138c000c14ff2f,0.26,Kasperlad,,,1.0,0.0,0.0,677.2812613926362,f,20.248738583177328,f,test,1.0,,,
,p5cd_ad,27,128749,0.0-6.0-1.0-0.12,f078aa2862041786868ef9f2ad23336df49386eb98fe8259951830bdf7c3dbfd,5d9b60eb027b56001220d84e,"[19, 221, 189, 26, 39, 172, 184, 98, 108, 25, 96, 104, 250, 4, 252, 47, 239, 191, 72, 222, 221, 13, 84, 114, 95, 130, 128, 184, 14, 43, 239, 181]",5f183ba2066b9c11e73f0302,5d9b60eb027b56001220d84e,5f19515537138c000c14ff2f,0.26,Kasperlad,,,5.0,0.0,0.0,2042.1048072748818,f,292.0051927212626,f,test,1.0,,,
,p5cd_ad,28,131033,0.0-6.0-1.0-0.13,f078aa2862041786868ef9f2ad23336df49386eb98fe8259951830bdf7c3dbfd,5d9b60eb027b56001220d84e,"[19, 221, 189, 26, 39, 172, 184, 98, 108, 25, 96, 104, 250, 4, 252, 47, 239, 191, 72, 222, 221, 13, 84, 114, 95, 130, 128, 184, 14, 43, 239, 181]",5f183ba2066b9c11e73f0302,5d9b60eb027b56001220d84e,5f19515537138c000c14ff2f,0.26,Kasperlad,,,3.0,1.0,0.0,710.7209030655213,j,59.1340969549492,j,test,1.0,,,
,p5cd_ad,29,133900,0.0-6.0-1.0-0.14,f078aa2862041786868ef9f2ad23336df49386eb98fe8259951830bdf7c3dbfd,5d9b60eb027b56001220d84e,"[19, 221, 189, 26, 39, 172, 184, 98, 108, 25, 96, 104, 250, 4, 252, 47, 239, 191, 72, 222, 221, 13, 84, 114, 95, 130, 128, 184, 14, 43, 239, 181]",5f183ba2066b9c11e73f0302,5d9b60eb027b56001220d84e,5f19515537138c000c14ff2f,0.26,Kasperlad,,,3.0,0.0,0.0,909.5636107958853,f,441.14138919394463,f,test,1.0,,,
,p5cd_ad,30,136799,0.0-6.0-1.0-0.15,f078aa2862041786868ef9f2ad23336df49386eb98fe8259951830bdf7c3dbfd,5d9b60eb027b56001220d84e,"[19, 221, 189, 26, 39, 172, 184, 98, 108, 25, 96, 104, 250, 4, 252, 47, 239, 191, 72, 222, 221, 13, 84, 114, 95, 130, 128, 184, 14, 43, 239, 181]",5f183ba2066b9c11e73f0302,5d9b60eb027b56001220d84e,5f19515537138c000c14ff2f,0.26,Kasperlad,,,1.0,1.0,0.0,1014.2595958604943,j,368.98540414404124,j,test,1.0,,,
,p5Text,31,147545,0.0-6.0-2.0,f078aa2862041786868ef9f2ad23336df49386eb98fe8259951830bdf7c3dbfd,5d9b60eb027b56001220d84e,"[19, 221, 189, 26, 39, 172, 184, 98, 108, 25, 96, 104, 250, 4, 252, 47, 239, 191, 72, 222, 221, 13, 84, 114, 95, 130, 128, 184, 14, 43, 239, 181]",5f183ba2066b9c11e73f0302,5d9b60eb027b56001220d84e,5f19515537138c000c14ff2f,0.26,Kasperlad,,,,,,,,,,,,,,
,p5Text,32,151922,0.0-6.0-0.1,f078aa2862041786868ef9f2ad23336df49386eb98fe8259951830bdf7c3dbfd,5d9b60eb027b56001220d84e,"[19, 221, 189, 26, 39, 172, 184, 98, 108, 25, 96, 104, 250, 4, 252, 47, 239, 191, 72, 222, 221, 13, 84, 114, 95, 130, 128, 184, 14, 43, 239, 181]",5f183ba2066b9c11e73f0302,5d9b60eb027b56001220d84e,5f19515537138c000c14ff2f,0.26,Kasperlad,,,,,,,,,,,,,,
,p5cd_ad,33,154499,0.0-6.0-1.1-0.16,f078aa2862041786868ef9f2ad23336df49386eb98fe8259951830bdf7c3dbfd,5d9b60eb027b56001220d84e,"[19, 221, 189, 26, 39, 172, 184, 98, 108, 25, 96, 104, 250, 4, 252, 47, 239, 191, 72, 222, 221, 13, 84, 114, 95, 130, 128, 184, 14, 43, 239, 181]",5f183ba2066b9c11e73f0302,5d9b60eb027b56001220d84e,5f19515537138c000c14ff2f,0.26,Kasperlad,,,1.0,1.0,1.0,788.5104824963491,j,267.17451750300825,j,test,1.0,,,
,p5cd_ad,34,159099,0.0-6.0-1.1-0.17,f078aa2862041786868ef9f2ad23336df49386eb98fe8259951830bdf7c3dbfd,5d9b60eb027b56001220d84e,"[19, 221, 189, 26, 39, 172, 184, 98, 108, 25, 96, 104, 250, 4, 252, 47, 239, 191, 72, 222, 221, 13, 84, 114, 95, 130, 128, 184, 14, 43, 239, 181]",5f183ba2066b9c11e73f0302,5d9b60eb027b56001220d84e,5f19515537138c000c14ff2f,0.26,Kasperlad,,,9.0,0.0,1.0,2587.2051900660153,j,497.4048099247739,f,test,0.0,,,
,p5cd_ad,35,162650,0.0-6.0-1.1-0.18,f078aa2862041786868ef9f2ad23336df49386eb98fe8259951830bdf7c3dbfd,5d9b60eb027b56001220d84e,"[19, 221, 189, 26, 39, 172, 184, 98, 108, 25, 96, 104, 250, 4, 252, 47, 239, 191, 72, 222, 221, 13, 84, 114, 95, 130, 128, 184, 14, 43, 239, 181]",5f183ba2066b9c11e73f0302,5d9b60eb027b56001220d84e,5f19515537138c000c14ff2f,0.26,Kasperlad,,,3.0,0.0,0.0,1952.7770656568464,f,80.93793434090912,f,test,1.0,,,
,p5cd_ad,36,165915,0.0-6.0-1.1-0.19,f078aa2862041786868ef9f2ad23336df49386eb98fe8259951830bdf7c3dbfd,5d9b60eb027b56001220d84e,"[19, 221, 189, 26, 39, 172, 184, 98, 108, 25, 96, 104, 250, 4, 252, 47, 239, 191, 72, 222, 221, 13, 84, 114, 95, 130, 128, 184, 14, 43, 239, 181]",5f183ba2066b9c11e73f0302,5d9b60eb027b56001220d84e,5f19515537138c000c14ff2f,0.26,Kasperlad,,,5.0,0.0,1.0,1648.0686182330828,f,101.29138175398111,f,test,1.0,,,
,p5cd_ad,37,170132,0.0-6.0-1.1-0.20,f078aa2862041786868ef9f2ad23336df49386eb98fe8259951830bdf7c3dbfd,5d9b60eb027b56001220d84e,"[19, 221, 189, 26, 39, 172, 184, 98, 108, 25, 96, 104, 250, 4, 252, 47, 239, 191, 72, 222, 221, 13, 84, 114, 95, 130, 128, 184, 14, 43, 239, 181]",5f183ba2066b9c11e73f0302,5d9b60eb027b56001220d84e,5f19515537138c000c14ff2f,0.26,Kasperlad,,,5.0,0.0,0.0,2486.9536885234993,f,211.926311487332,f,test,1.0,,,
,p5cd_ad,38,172599,0.0-6.0-1.1-0.21,f078aa2862041786868ef9f2ad23336df49386eb98fe8259951830bdf7c3dbfd,5d9b60eb027b56001220d84e,"[19, 221, 189, 26, 39, 172, 184, 98, 108, 25, 96, 104, 250, 4, 252, 47, 239, 191, 72, 222, 221, 13, 84, 114, 95, 130, 128, 184, 14, 43, 239, 181]",5f183ba2066b9c11e73f0302,5d9b60eb027b56001220d84e,5f19515537138c000c14ff2f,0.26,Kasperlad,,,1.0,1.0,0.0,789.8345394642092,j,163.98546053096652,j,test,1.0,,,
,p5cd_ad,39,176015,0.0-6.0-1.1-0.22,f078aa2862041786868ef9f2ad23336df49386eb98fe8259951830bdf7c3dbfd,5d9b60eb027b56001220d84e,"[19, 221, 189, 26, 39, 172, 184, 98, 108, 25, 96, 104, 250, 4, 252, 47, 239, 191, 72, 222, 221, 13, 84, 114, 95, 130, 128, 184, 14, 43, 239, 181]",5f183ba2066b9c11e73f0302,5d9b60eb027b56001220d84e,5f19515537138c000c14ff2f,0.26,Kasperlad,,,3.0,1.0,0.0,1461.4940207393374,f,437.79097928199917,j,test,0.0,,,
,p5cd_ad,40,179581,0.0-6.0-1.1-0.23,f078aa2862041786868ef9f2ad23336df49386eb98fe8259951830bdf7c3dbfd,5d9b60eb027b56001220d84e,"[19, 221, 189, 26, 39, 172, 184, 98, 108, 25, 96, 104, 250, 4, 252, 47, 239, 191, 72, 222, 221, 13, 84, 114, 95, 130, 128, 184, 14, 43, 239, 181]",5f183ba2066b9c11e73f0302,5d9b60eb027b56001220d84e,5f19515537138c000c14ff2f,0.26,Kasperlad,,,9.0,0.0,0.0,1790.2571792074014,f,256.7378208041191,f,test,1.0,,,
,p5cd_ad,41,183115,0.0-6.0-1.1-0.24,f078aa2862041786868ef9f2ad23336df49386eb98fe8259951830bdf7c3dbfd,5d9b60eb027b56001220d84e,"[19, 221, 189, 26, 39, 172, 184, 98, 108, 25, 96, 104, 250, 4, 252, 47, 239, 191, 72, 222, 221, 13, 84, 114, 95, 130, 128, 184, 14, 43, 239, 181]",5f183ba2066b9c11e73f0302,5d9b60eb027b56001220d84e,5f19515537138c000c14ff2f,0.26,Kasperlad,,,5.0,1.0,0.0,1575.0274510646705,j,446.4625489199534,j,test,1.0,,,
,p5cd_ad,42,185364,0.0-6.0-1.1-0.25,f078aa2862041786868ef9f2ad23336df49386eb98fe8259951830bdf7c3dbfd,5d9b60eb027b56001220d84e,"[19, 221, 189, 26, 39, 172, 184, 98, 108, 25, 96, 104, 250, 4, 252, 47, 239, 191, 72, 222, 221, 13, 84, 114, 95, 130, 128, 184, 14, 43, 239, 181]",5f183ba2066b9c11e73f0302,5d9b60eb027b56001220d84e,5f19515537138c000c14ff2f,0.26,Kasperlad,,,1.0,0.0,1.0,721.3939861394465,f,16.971013857983053,f,test,1.0,,,
,p5cd_ad,43,188032,0.0-6.0-1.1-0.26,f078aa2862041786868ef9f2ad23336df49386eb98fe8259951830bdf7c3dbfd,5d9b60eb027b56001220d84e,"[19, 221, 189, 26, 39, 172, 184, 98, 108, 25, 96, 104, 250, 4, 252, 47, 239, 191, 72, 222, 221, 13, 84, 114, 95, 130, 128, 184, 14, 43, 239, 181]",5f183ba2066b9c11e73f0302,5d9b60eb027b56001220d84e,5f19515537138c000c14ff2f,0.26,Kasperlad,,,3.0,1.0,1.0,1013.2173857127782,j,138.5126142995432,j,test,1.0,,,
,p5cd_ad,44,190865,0.0-6.0-1.1-0.27,f078aa2862041786868ef9f2ad23336df49386eb98fe8259951830bdf7c3dbfd,5d9b60eb027b56001220d84e,"[19, 221, 189, 26, 39, 172, 184, 98, 108, 25, 96, 104, 250, 4, 252, 47, 239, 191, 72, 222, 221, 13, 84, 114, 95, 130, 128, 184, 14, 43, 239, 181]",5f183ba2066b9c11e73f0302,5d9b60eb027b56001220d84e,5f19515537138c000c14ff2f,0.26,Kasperlad,,,1.0,0.0,0.0,1156.4493518380914,f,155.19064816180617,f,test,1.0,,,
,p5cd_ad,45,193914,0.0-6.0-1.1-0.28,f078aa2862041786868ef9f2ad23336df49386eb98fe8259951830bdf7c3dbfd,5d9b60eb027b56001220d84e,"[19, 221, 189, 26, 39, 172, 184, 98, 108, 25, 96, 104, 250, 4, 252, 47, 239, 191, 72, 222, 221, 13, 84, 114, 95, 130, 128, 184, 14, 43, 239, 181]",5f183ba2066b9c11e73f0302,5d9b60eb027b56001220d84e,5f19515537138c000c14ff2f,0.26,Kasperlad,,,5.0,1.0,1.0,1073.8788711896632,j,464.37112882267684,j,test,1.0,,,
,p5cd_ad,46,196547,0.0-6.0-1.1-0.29,f078aa2862041786868ef9f2ad23336df49386eb98fe8259951830bdf7c3dbfd,5d9b60eb027b56001220d84e,"[19, 221, 189, 26, 39, 172, 184, 98, 108, 25, 96, 104, 250, 4, 252, 47, 239, 191, 72, 222, 221, 13, 84, 114, 95, 130, 128, 184, 14, 43, 239, 181]",5f183ba2066b9c11e73f0302,5d9b60eb027b56001220d84e,5f19515537138c000c14ff2f,0.26,Kasperlad,,,9.0,1.0,1.0,968.8090924173594,f,148.2409075833857,j,test,0.0,,,
,p5cd_ad,47,199063,0.0-6.0-1.1-0.30,f078aa2862041786868ef9f2ad23336df49386eb98fe8259951830bdf7c3dbfd,5d9b60eb027b56001220d84e,"[19, 221, 189, 26, 39, 172, 184, 98, 108, 25, 96, 104, 250, 4, 252, 47, 239, 191, 72, 222, 221, 13, 84, 114, 95, 130, 128, 184, 14, 43, 239, 181]",5f183ba2066b9c11e73f0302,5d9b60eb027b56001220d84e,5f19515537138c000c14ff2f,0.26,Kasperlad,,,3.0,0.0,1.0,708.7077185860835,f,293.5172814177349,f,test,1.0,,,
,p5cd_ad,48,202714,0.0-6.0-1.1-0.31,f078aa2862041786868ef9f2ad23336df49386eb98fe8259951830bdf7c3dbfd,5d9b60eb027b56001220d84e,"[19, 221, 189, 26, 39, 172, 184, 98, 108, 25, 96, 104, 250, 4, 252, 47, 239, 191, 72, 222, 221, 13, 84, 114, 95, 130, 128, 184, 14, 43, 239, 181]",5f183ba2066b9c11e73f0302,5d9b60eb027b56001220d84e,5f19515537138c000c14ff2f,0.26,Kasperlad,,,9.0,1.0,0.0,1707.866963435663,f,436.1530365422368,j,test,0.0,,,
,p5Text,49,208253,0.0-6.0-2.1,f078aa2862041786868ef9f2ad23336df49386eb98fe8259951830bdf7c3dbfd,5d9b60eb027b56001220d84e,"[19, 221, 189, 26, 39, 172, 184, 98, 108, 25, 96, 104, 250, 4, 252, 47, 239, 191, 72, 222, 221, 13, 84, 114, 95, 130, 128, 184, 14, 43, 239, 181]",5f183ba2066b9c11e73f0302,5d9b60eb027b56001220d84e,5f19515537138c000c14ff2f,0.26,Kasperlad,,,,,,,,,,,,,,
,p5Text,50,211375,0.0-6.0-0.2,f078aa2862041786868ef9f2ad23336df49386eb98fe8259951830bdf7c3dbfd,5d9b60eb027b56001220d84e,"[19, 221, 189, 26, 39, 172, 184, 98, 108, 25, 96, 104, 250, 4, 252, 47, 239, 191, 72, 222, 221, 13, 84, 114, 95, 130, 128, 184, 14, 43, 239, 181]",5f183ba2066b9c11e73f0302,5d9b60eb027b56001220d84e,5f19515537138c000c14ff2f,0.26,Kasperlad,,,,,,,,,,,,,,
,p5cd_ad,51,214129,0.0-6.0-1.2-0.32,f078aa2862041786868ef9f2ad23336df49386eb98fe8259951830bdf7c3dbfd,5d9b60eb027b56001220d84e,"[19, 221, 189, 26, 39, 172, 184, 98, 108, 25, 96, 104, 250, 4, 252, 47, 239, 191, 72, 222, 221, 13, 84, 114, 95, 130, 128, 184, 14, 43, 239, 181]",5f183ba2066b9c11e73f0302,5d9b60eb027b56001220d84e,5f19515537138c000c14ff2f,0.26,Kasperlad,,,9.0,0.0,0.0,1145.1983553706668,j,92.181644635275,f,test,0.0,,,
,p5cd_ad,52,217797,0.0-6.0-1.2-0.33,f078aa2862041786868ef9f2ad23336df49386eb98fe8259951830bdf7c3dbfd,5d9b60eb027b56001220d84e,"[19, 221, 189, 26, 39, 172, 184, 98, 108, 25, 96, 104, 250, 4, 252, 47, 239, 191, 72, 222, 221, 13, 84, 114, 95, 130, 128, 184, 14, 43, 239, 181]",5f183ba2066b9c11e73f0302,5d9b60eb027b56001220d84e,5f19515537138c000c14ff2f,0.26,Kasperlad,,,3.0,1.0,0.0,1938.1024616304785,j,213.43753836117685,j,test,1.0,,,
,p5cd_ad,53,220281,0.0-6.0-1.2-0.34,f078aa2862041786868ef9f2ad23336df49386eb98fe8259951830bdf7c3dbfd,5d9b60eb027b56001220d84e,"[19, 221, 189, 26, 39, 172, 184, 98, 108, 25, 96, 104, 250, 4, 252, 47, 239, 191, 72, 222, 221, 13, 84, 114, 95, 130, 128, 184, 14, 43, 239, 181]",5f183ba2066b9c11e73f0302,5d9b60eb027b56001220d84e,5f19515537138c000c14ff2f,0.26,Kasperlad,,,1.0,1.0,0.0,742.8903641412035,j,231.89963586628437,j,test,1.0,,,
,p5cd_ad,54,223228,0.0-6.0-1.2-0.35,f078aa2862041786868ef9f2ad23336df49386eb98fe8259951830bdf7c3dbfd,5d9b60eb027b56001220d84e,"[19, 221, 189, 26, 39, 172, 184, 98, 108, 25, 96, 104, 250, 4, 252, 47, 239, 191, 72, 222, 221, 13, 84, 114, 95, 130, 128, 184, 14, 43, 239, 181]",5f183ba2066b9c11e73f0302,5d9b60eb027b56001220d84e,5f19515537138c000c14ff2f,0.26,Kasperlad,,,5.0,0.0,1.0,990.3319392469712,f,449.4380607502535,f,test,1.0,,,
,p5cd_ad,55,226881,0.0-6.0-1.2-0.36,f078aa2862041786868ef9f2ad23336df49386eb98fe8259951830bdf7c3dbfd,5d9b60eb027b56001220d84e,"[19, 221, 189, 26, 39, 172, 184, 98, 108, 25, 96, 104, 250, 4, 252, 47, 239, 191, 72, 222, 221, 13, 84, 114, 95, 130, 128, 184, 14, 43, 239, 181]",5f183ba2066b9c11e73f0302,5d9b60eb027b56001220d84e,5f19515537138c000c14ff2f,0.26,Kasperlad,,,3.0,0.0,1.0,1998.6407630203757,f,140.864236978814,f,test,1.0,,,
,p5cd_ad,56,231964,0.0-6.0-1.2-0.37,f078aa2862041786868ef9f2ad23336df49386eb98fe8259951830bdf7c3dbfd,5d9b60eb027b56001220d84e,"[19, 221, 189, 26, 39, 172, 184, 98, 108, 25, 96, 104, 250, 4, 252, 47, 239, 191, 72, 222, 221, 13, 84, 114, 95, 130, 128, 184, 14, 43, 239, 181]",5f183ba2066b9c11e73f0302,5d9b60eb027b56001220d84e,5f19515537138c000c14ff2f,0.26,Kasperlad,,,5.0,1.0,0.0,3347.15582759236,f,226.10417241230607,j,test,0.0,,,
,p5cd_ad,57,234679,0.0-6.0-1.2-0.38,f078aa2862041786868ef9f2ad23336df49386eb98fe8259951830bdf7c3dbfd,5d9b60eb027b56001220d84e,"[19, 221, 189, 26, 39, 172, 184, 98, 108, 25, 96, 104, 250, 4, 252, 47, 239, 191, 72, 222, 221, 13, 84, 114, 95, 130, 128, 184, 14, 43, 239, 181]",5f183ba2066b9c11e73f0302,5d9b60eb027b56001220d84e,5f19515537138c000c14ff2f,0.26,Kasperlad,,,9.0,1.0,1.0,1185.783384280512,f,18.056615721434355,j,test,0.0,,,
,p5cd_ad,58,237562,0.0-6.0-1.2-0.39,f078aa2862041786868ef9f2ad23336df49386eb98fe8259951830bdf7c3dbfd,5d9b60eb027b56001220d84e,"[19, 221, 189, 26, 39, 172, 184, 98, 108, 25, 96, 104, 250, 4, 252, 47, 239, 191, 72, 222, 221, 13, 84, 114, 95, 130, 128, 184, 14, 43, 239, 181]",5f183ba2066b9c11e73f0302,5d9b60eb027b56001220d84e,5f19515537138c000c14ff2f,0.26,Kasperlad,,,5.0,0.0,0.0,1339.118365664035,f,28.756634332239628,f,test,1.0,,,
,p5cd_ad,59,240845,0.0-6.0-1.2-0.40,f078aa2862041786868ef9f2ad23336df49386eb98fe8259951830bdf7c3dbfd,5d9b60eb027b56001220d84e,"[19, 221, 189, 26, 39, 172, 184, 98, 108, 25, 96, 104, 250, 4, 252, 47, 239, 191, 72, 222, 221, 13, 84, 114, 95, 130, 128, 184, 14, 43, 239, 181]",5f183ba2066b9c11e73f0302,5d9b60eb027b56001220d84e,5f19515537138c000c14ff2f,0.26,Kasperlad,,,5.0,1.0,1.0,1456.9833638961427,j,313.57163609936833,j,test,1.0,,,
,p5cd_ad,60,243230,0.0-6.0-1.2-0.41,f078aa2862041786868ef9f2ad23336df49386eb98fe8259951830bdf7c3dbfd,5d9b60eb027b56001220d84e,"[19, 221, 189, 26, 39, 172, 184, 98, 108, 25, 96, 104, 250, 4, 252, 47, 239, 191, 72, 222, 221, 13, 84, 114, 95, 130, 128, 184, 14, 43, 239, 181]",5f183ba2066b9c11e73f0302,5d9b60eb027b56001220d84e,5f19515537138c000c14ff2f,0.26,Kasperlad,,,1.0,0.0,0.0,856.4969904837199,f,11.048009502701461,f,test,1.0,,,
,p5cd_ad,61,246679,0.0-6.0-1.2-0.42,f078aa2862041786868ef9f2ad23336df49386eb98fe8259951830bdf7c3dbfd,5d9b60eb027b56001220d84e,"[19, 221, 189, 26, 39, 172, 184, 98, 108, 25, 96, 104, 250, 4, 252, 47, 239, 191, 72, 222, 221, 13, 84, 114, 95, 130, 128, 184, 14, 43, 239, 181]",5f183ba2066b9c11e73f0302,5d9b60eb027b56001220d84e,5f19515537138c000c14ff2f,0.26,Kasperlad,,,3.0,1.0,1.0,1569.5180132752284,j,363.1369867362082,j,test,1.0,,,
