success,trial_type,trial_index,time_elapsed,internal_node_id,protocol_sum,subject_identifier,subject_sum,STUDY_ID,PROLIFIC_PID,SESSION_ID,followed_instructions,which_stimulus,RT,response,SOA,correct_response,test_part,correct,rt,stimulus,key_press,confidence,conf_RT,responses,question_order,set_size,target_present,target_position,distractor_positions,jitter,target
1.0,fullscreen,0,4271,0.0-0.0,f078aa2862041786868ef9f2ad23336df49386eb98fe8259951830bdf7c3dbfd,5c7dc31ade6f79001849c3a3,"[119, 33, 21, 251, 69, 243, 53, 91, 126, 37, 73, 39, 242, 115, 34, 233, 49, 62, 4, 137, 45, 158, 137, 1, 235, 28, 250, 20, 241, 206, 9, 244]",5ef0c931cace092dd8a8dd64,5c7dc31ade6f79001849c3a3,5ef0d53ef2d2bf65ffe0ae88,True,,,,,,,,,,,,,,,,,,,,
,p5Text,1,49447,0.0-1.0,f078aa2862041786868ef9f2ad23336df49386eb98fe8259951830bdf7c3dbfd,5c7dc31ade6f79001849c3a3,"[119, 33, 21, 251, 69, 243, 53, 91, 126, 37, 73, 39, 242, 115, 34, 233, 49, 62, 4, 137, 45, 158, 137, 1, 235, 28, 250, 20, 241, 206, 9, 244]",5ef0c931cace092dd8a8dd64,5c7dc31ade6f79001849c3a3,5ef0d53ef2d2bf65ffe0ae88,True,,,,,,,,,,,,,,,,,,,,
,p5Text,2,82804,0.0-2.0-0.0-0.0,f078aa2862041786868ef9f2ad23336df49386eb98fe8259951830bdf7c3dbfd,5c7dc31ade6f79001849c3a3,"[119, 33, 21, 251, 69, 243, 53, 91, 126, 37, 73, 39, 242, 115, 34, 233, 49, 62, 4, 137, 45, 158, 137, 1, 235, 28, 250, 20, 241, 206, 9, 244]",5ef0c931cace092dd8a8dd64,5c7dc31ade6f79001849c3a3,5ef0d53ef2d2bf65ffe0ae88,True,,,,,,,,,,,,,,,,,,,,
,disc,3,85498,0.0-2.0-0.0-1.0-0.0,f078aa2862041786868ef9f2ad23336df49386eb98fe8259951830bdf7c3dbfd,5c7dc31ade6f79001849c3a3,"[119, 33, 21, 251, 69, 243, 53, 91, 126, 37, 73, 39, 242, 115, 34, 233, 49, 62, 4, 137, 45, 158, 137, 1, 235, 28, 250, 20, 241, 206, 9, 244]",5ef0c931cace092dd8a8dd64,5c7dc31ade6f79001849c3a3,5ef0d53ef2d2bf65ffe0ae88,True,2.0,2181.7300003021955,q,100.0,w,disc_practice,0.0,,,,,,,,,,,,,
,html-keyboard-response,4,87004,0.0-2.0-0.0-1.0-1.0,f078aa2862041786868ef9f2ad23336df49386eb98fe8259951830bdf7c3dbfd,5c7dc31ade6f79001849c3a3,"[119, 33, 21, 251, 69, 243, 53, 91, 126, 37, 73, 39, 242, 115, 34, 233, 49, 62, 4, 137, 45, 158, 137, 1, 235, 28, 250, 20, 241, 206, 9, 244]",5ef0c931cace092dd8a8dd64,5c7dc31ade6f79001849c3a3,5ef0d53ef2d2bf65ffe0ae88,True,,,,,,,,,"<div style=""width:150px;height:56px;border:0px;font-size:30px;text-align:center"">wrong.</div>",,,,,,,,,,,
,disc,5,88252,0.0-2.0-0.0-1.0-0.1,f078aa2862041786868ef9f2ad23336df49386eb98fe8259951830bdf7c3dbfd,5c7dc31ade6f79001849c3a3,"[119, 33, 21, 251, 69, 243, 53, 91, 126, 37, 73, 39, 242, 115, 34, 233, 49, 62, 4, 137, 45, 158, 137, 1, 235, 28, 250, 20, 241, 206, 9, 244]",5ef0c931cace092dd8a8dd64,5c7dc31ade6f79001849c3a3,5ef0d53ef2d2bf65ffe0ae88,True,1.0,738.9199999161065,q,111.11111111111111,q,disc_practice,1.0,,,,,,,,,,,,,
,html-keyboard-response,6,89254,0.0-2.0-0.0-1.0-1.1,f078aa2862041786868ef9f2ad23336df49386eb98fe8259951830bdf7c3dbfd,5c7dc31ade6f79001849c3a3,"[119, 33, 21, 251, 69, 243, 53, 91, 126, 37, 73, 39, 242, 115, 34, 233, 49, 62, 4, 137, 45, 158, 137, 1, 235, 28, 250, 20, 241, 206, 9, 244]",5ef0c931cace092dd8a8dd64,5c7dc31ade6f79001849c3a3,5ef0d53ef2d2bf65ffe0ae88,True,,,,,,,,,"<div style=""width:150px;height:56px;font-size:30px;text-align:center;"">correct!</div>",,,,,,,,,,,
,disc,7,90486,0.0-2.0-0.0-1.0-0.2,f078aa2862041786868ef9f2ad23336df49386eb98fe8259951830bdf7c3dbfd,5c7dc31ade6f79001849c3a3,"[119, 33, 21, 251, 69, 243, 53, 91, 126, 37, 73, 39, 242, 115, 34, 233, 49, 62, 4, 137, 45, 158, 137, 1, 235, 28, 250, 20, 241, 206, 9, 244]",5ef0c931cace092dd8a8dd64,5c7dc31ade6f79001849c3a3,5ef0d53ef2d2bf65ffe0ae88,True,2.0,722.820000257343,w,111.11111111111111,w,disc_practice,1.0,,,,,,,,,,,,,
,html-keyboard-response,8,91487,0.0-2.0-0.0-1.0-1.2,f078aa2862041786868ef9f2ad23336df49386eb98fe8259951830bdf7c3dbfd,5c7dc31ade6f79001849c3a3,"[119, 33, 21, 251, 69, 243, 53, 91, 126, 37, 73, 39, 242, 115, 34, 233, 49, 62, 4, 137, 45, 158, 137, 1, 235, 28, 250, 20, 241, 206, 9, 244]",5ef0c931cace092dd8a8dd64,5c7dc31ade6f79001849c3a3,5ef0d53ef2d2bf65ffe0ae88,True,,,,,,,,,"<div style=""width:150px;height:56px;font-size:30px;text-align:center;"">correct!</div>",,,,,,,,,,,
,disc,9,92822,0.0-2.0-0.0-1.0-0.3,f078aa2862041786868ef9f2ad23336df49386eb98fe8259951830bdf7c3dbfd,5c7dc31ade6f79001849c3a3,"[119, 33, 21, 251, 69, 243, 53, 91, 126, 37, 73, 39, 242, 115, 34, 233, 49, 62, 4, 137, 45, 158, 137, 1, 235, 28, 250, 20, 241, 206, 9, 244]",5ef0c931cace092dd8a8dd64,5c7dc31ade6f79001849c3a3,5ef0d53ef2d2bf65ffe0ae88,True,1.0,823.1750000268221,q,100.0,q,disc_practice,1.0,,,,,,,,,,,,,
,html-keyboard-response,10,93827,0.0-2.0-0.0-1.0-1.3,f078aa2862041786868ef9f2ad23336df49386eb98fe8259951830bdf7c3dbfd,5c7dc31ade6f79001849c3a3,"[119, 33, 21, 251, 69, 243, 53, 91, 126, 37, 73, 39, 242, 115, 34, 233, 49, 62, 4, 137, 45, 158, 137, 1, 235, 28, 250, 20, 241, 206, 9, 244]",5ef0c931cace092dd8a8dd64,5c7dc31ade6f79001849c3a3,5ef0d53ef2d2bf65ffe0ae88,True,,,,,,,,,"<div style=""width:150px;height:56px;font-size:30px;text-align:center;"">correct!</div>",,,,,,,,,,,
,p5Text,11,104671,0.0-2.0-0.1-0.1,f078aa2862041786868ef9f2ad23336df49386eb98fe8259951830bdf7c3dbfd,5c7dc31ade6f79001849c3a3,"[119, 33, 21, 251, 69, 243, 53, 91, 126, 37, 73, 39, 242, 115, 34, 233, 49, 62, 4, 137, 45, 158, 137, 1, 235, 28, 250, 20, 241, 206, 9, 244]",5ef0c931cace092dd8a8dd64,5c7dc31ade6f79001849c3a3,5ef0d53ef2d2bf65ffe0ae88,True,,,,,,,,,,,,,,,,,,,,
,disc,12,108353,0.0-2.0-0.1-1.1-0.4,f078aa2862041786868ef9f2ad23336df49386eb98fe8259951830bdf7c3dbfd,5c7dc31ade6f79001849c3a3,"[119, 33, 21, 251, 69, 243, 53, 91, 126, 37, 73, 39, 242, 115, 34, 233, 49, 62, 4, 137, 45, 158, 137, 1, 235, 28, 250, 20, 241, 206, 9, 244]",5ef0c931cace092dd8a8dd64,5c7dc31ade6f79001849c3a3,5ef0d53ef2d2bf65ffe0ae88,True,1.0,3172.7950000204146,q,100.0,q,disc_practice,1.0,,,,,,,,,,,,,
,html-keyboard-response,13,109355,0.0-2.0-0.1-1.1-1.4,f078aa2862041786868ef9f2ad23336df49386eb98fe8259951830bdf7c3dbfd,5c7dc31ade6f79001849c3a3,"[119, 33, 21, 251, 69, 243, 53, 91, 126, 37, 73, 39, 242, 115, 34, 233, 49, 62, 4, 137, 45, 158, 137, 1, 235, 28, 250, 20, 241, 206, 9, 244]",5ef0c931cace092dd8a8dd64,5c7dc31ade6f79001849c3a3,5ef0d53ef2d2bf65ffe0ae88,True,,,,,,,,,"<div style=""width:150px;height:56px;font-size:30px;text-align:center;"">correct!</div>",,,,,,,,,,,
,disc,14,110390,0.0-2.0-0.1-1.1-0.5,f078aa2862041786868ef9f2ad23336df49386eb98fe8259951830bdf7c3dbfd,5c7dc31ade6f79001849c3a3,"[119, 33, 21, 251, 69, 243, 53, 91, 126, 37, 73, 39, 242, 115, 34, 233, 49, 62, 4, 137, 45, 158, 137, 1, 235, 28, 250, 20, 241, 206, 9, 244]",5ef0c931cace092dd8a8dd64,5c7dc31ade6f79001849c3a3,5ef0d53ef2d2bf65ffe0ae88,True,2.0,516.1649999208748,w,90.0,w,disc_practice,1.0,,,,,,,,,,,,,
,html-keyboard-response,15,111396,0.0-2.0-0.1-1.1-1.5,f078aa2862041786868ef9f2ad23336df49386eb98fe8259951830bdf7c3dbfd,5c7dc31ade6f79001849c3a3,"[119, 33, 21, 251, 69, 243, 53, 91, 126, 37, 73, 39, 242, 115, 34, 233, 49, 62, 4, 137, 45, 158, 137, 1, 235, 28, 250, 20, 241, 206, 9, 244]",5ef0c931cace092dd8a8dd64,5c7dc31ade6f79001849c3a3,5ef0d53ef2d2bf65ffe0ae88,True,,,,,,,,,"<div style=""width:150px;height:56px;font-size:30px;text-align:center;"">correct!</div>",,,,,,,,,,,
,disc,16,112437,0.0-2.0-0.1-1.1-0.6,f078aa2862041786868ef9f2ad23336df49386eb98fe8259951830bdf7c3dbfd,5c7dc31ade6f79001849c3a3,"[119, 33, 21, 251, 69, 243, 53, 91, 126, 37, 73, 39, 242, 115, 34, 233, 49, 62, 4, 137, 45, 158, 137, 1, 235, 28, 250, 20, 241, 206, 9, 244]",5ef0c931cace092dd8a8dd64,5c7dc31ade6f79001849c3a3,5ef0d53ef2d2bf65ffe0ae88,True,2.0,523.7050000578165,w,90.0,w,disc_practice,1.0,,,,,,,,,,,,,
,html-keyboard-response,17,113442,0.0-2.0-0.1-1.1-1.6,f078aa2862041786868ef9f2ad23336df49386eb98fe8259951830bdf7c3dbfd,5c7dc31ade6f79001849c3a3,"[119, 33, 21, 251, 69, 243, 53, 91, 126, 37, 73, 39, 242, 115, 34, 233, 49, 62, 4, 137, 45, 158, 137, 1, 235, 28, 250, 20, 241, 206, 9, 244]",5ef0c931cace092dd8a8dd64,5c7dc31ade6f79001849c3a3,5ef0d53ef2d2bf65ffe0ae88,True,,,,,,,,,"<div style=""width:150px;height:56px;font-size:30px;text-align:center;"">correct!</div>",,,,,,,,,,,
,disc,18,114455,0.0-2.0-0.1-1.1-0.7,f078aa2862041786868ef9f2ad23336df49386eb98fe8259951830bdf7c3dbfd,5c7dc31ade6f79001849c3a3,"[119, 33, 21, 251, 69, 243, 53, 91, 126, 37, 73, 39, 242, 115, 34, 233, 49, 62, 4, 137, 45, 158, 137, 1, 235, 28, 250, 20, 241, 206, 9, 244]",5ef0c931cace092dd8a8dd64,5c7dc31ade6f79001849c3a3,5ef0d53ef2d2bf65ffe0ae88,True,1.0,502.7150004170835,q,81.0,q,disc_practice,1.0,,,,,,,,,,,,,
,html-keyboard-response,19,115456,0.0-2.0-0.1-1.1-1.7,f078aa2862041786868ef9f2ad23336df49386eb98fe8259951830bdf7c3dbfd,5c7dc31ade6f79001849c3a3,"[119, 33, 21, 251, 69, 243, 53, 91, 126, 37, 73, 39, 242, 115, 34, 233, 49, 62, 4, 137, 45, 158, 137, 1, 235, 28, 250, 20, 241, 206, 9, 244]",5ef0c931cace092dd8a8dd64,5c7dc31ade6f79001849c3a3,5ef0d53ef2d2bf65ffe0ae88,True,,,,,,,,4.410000052303076,"<div style=""width:150px;height:56px;font-size:30px;text-align:center;"">correct!</div>",192.0,,,,,,,,,,
,p5Text,20,136738,0.0-2.0-1.0,f078aa2862041786868ef9f2ad23336df49386eb98fe8259951830bdf7c3dbfd,5c7dc31ade6f79001849c3a3,"[119, 33, 21, 251, 69, 243, 53, 91, 126, 37, 73, 39, 242, 115, 34, 233, 49, 62, 4, 137, 45, 158, 137, 1, 235, 28, 250, 20, 241, 206, 9, 244]",5ef0c931cace092dd8a8dd64,5c7dc31ade6f79001849c3a3,5ef0d53ef2d2bf65ffe0ae88,True,,,,,,,,,,,,,,,,,,,,
,disc,21,144497,0.0-2.0-2.0-0.0,f078aa2862041786868ef9f2ad23336df49386eb98fe8259951830bdf7c3dbfd,5c7dc31ade6f79001849c3a3,"[119, 33, 21, 251, 69, 243, 53, 91, 126, 37, 73, 39, 242, 115, 34, 233, 49, 62, 4, 137, 45, 158, 137, 1, 235, 28, 250, 20, 241, 206, 9, 244]",5ef0c931cace092dd8a8dd64,5c7dc31ade6f79001849c3a3,5ef0d53ef2d2bf65ffe0ae88,True,1.0,2595.5650000832975,q,30.0,q,disc_practice_conf,1.0,,,,0.055824243081771,3945.27000002563,,,,,,,,
,html-keyboard-response,22,145502,0.0-2.0-2.0-1.0,f078aa2862041786868ef9f2ad23336df49386eb98fe8259951830bdf7c3dbfd,5c7dc31ade6f79001849c3a3,"[119, 33, 21, 251, 69, 243, 53, 91, 126, 37, 73, 39, 242, 115, 34, 233, 49, 62, 4, 137, 45, 158, 137, 1, 235, 28, 250, 20, 241, 206, 9, 244]",5ef0c931cace092dd8a8dd64,5c7dc31ade6f79001849c3a3,5ef0d53ef2d2bf65ffe0ae88,True,,,,,,,,,"<div style=""width:150px;height:56px;font-size:30px;text-align:center;"">correct!</div>",,,,,,,,,,,
,disc,23,151167,0.0-2.0-2.0-0.1,f078aa2862041786868ef9f2ad23336df49386eb98fe8259951830bdf7c3dbfd,5c7dc31ade6f79001849c3a3,"[119, 33, 21, 251, 69, 243, 53, 91, 126, 37, 73, 39, 242, 115, 34, 233, 49, 62, 4, 137, 45, 158, 137, 1, 235, 28, 250, 20, 241, 206, 9, 244]",5ef0c931cace092dd8a8dd64,5c7dc31ade6f79001849c3a3,5ef0d53ef2d2bf65ffe0ae88,True,2.0,898.930000141263,w,27.0,w,disc_practice_conf,1.0,,,,0.0,3550.4450001753867,,,,,,,,
,html-keyboard-response,24,152170,0.0-2.0-2.0-1.1,f078aa2862041786868ef9f2ad23336df49386eb98fe8259951830bdf7c3dbfd,5c7dc31ade6f79001849c3a3,"[119, 33, 21, 251, 69, 243, 53, 91, 126, 37, 73, 39, 242, 115, 34, 233, 49, 62, 4, 137, 45, 158, 137, 1, 235, 28, 250, 20, 241, 206, 9, 244]",5ef0c931cace092dd8a8dd64,5c7dc31ade6f79001849c3a3,5ef0d53ef2d2bf65ffe0ae88,True,,,,,,,,,"<div style=""width:150px;height:56px;font-size:30px;text-align:center;"">correct!</div>",,,,,,,,,,,
,disc,25,156021,0.0-2.0-2.0-0.2,f078aa2862041786868ef9f2ad23336df49386eb98fe8259951830bdf7c3dbfd,5c7dc31ade6f79001849c3a3,"[119, 33, 21, 251, 69, 243, 53, 91, 126, 37, 73, 39, 242, 115, 34, 233, 49, 62, 4, 137, 45, 158, 137, 1, 235, 28, 250, 20, 241, 206, 9, 244]",5ef0c931cace092dd8a8dd64,5c7dc31ade6f79001849c3a3,5ef0d53ef2d2bf65ffe0ae88,True,2.0,653.5199997015297,w,27.0,w,disc_practice_conf,1.0,,,,0.613836650419733,1986.7350002750754,,,,,,,,
,html-keyboard-response,26,157023,0.0-2.0-2.0-1.2,f078aa2862041786868ef9f2ad23336df49386eb98fe8259951830bdf7c3dbfd,5c7dc31ade6f79001849c3a3,"[119, 33, 21, 251, 69, 243, 53, 91, 126, 37, 73, 39, 242, 115, 34, 233, 49, 62, 4, 137, 45, 158, 137, 1, 235, 28, 250, 20, 241, 206, 9, 244]",5ef0c931cace092dd8a8dd64,5c7dc31ade6f79001849c3a3,5ef0d53ef2d2bf65ffe0ae88,True,,,,,,,,,"<div style=""width:150px;height:56px;font-size:30px;text-align:center;"">correct!</div>",,,,,,,,,,,
,disc,27,160393,0.0-2.0-2.0-0.3,f078aa2862041786868ef9f2ad23336df49386eb98fe8259951830bdf7c3dbfd,5c7dc31ade6f79001849c3a3,"[119, 33, 21, 251, 69, 243, 53, 91, 126, 37, 73, 39, 242, 115, 34, 233, 49, 62, 4, 137, 45, 158, 137, 1, 235, 28, 250, 20, 241, 206, 9, 244]",5ef0c931cace092dd8a8dd64,5c7dc31ade6f79001849c3a3,5ef0d53ef2d2bf65ffe0ae88,True,1.0,638.6549999006093,q,24.3,q,disc_practice_conf,1.0,,,,0.914741757191565,1525.3599998541176,,,,,,,,
,html-keyboard-response,28,161394,0.0-2.0-2.0-1.3,f078aa2862041786868ef9f2ad23336df49386eb98fe8259951830bdf7c3dbfd,5c7dc31ade6f79001849c3a3,"[119, 33, 21, 251, 69, 243, 53, 91, 126, 37, 73, 39, 242, 115, 34, 233, 49, 62, 4, 137, 45, 158, 137, 1, 235, 28, 250, 20, 241, 206, 9, 244]",5ef0c931cace092dd8a8dd64,5c7dc31ade6f79001849c3a3,5ef0d53ef2d2bf65ffe0ae88,True,,,,,,,,,"<div style=""width:150px;height:56px;font-size:30px;text-align:center;"">correct!</div>",,,,,,,,,,,
,survey-multi-choice,29,174022,0.0-2.0-3.0,f078aa2862041786868ef9f2ad23336df49386eb98fe8259951830bdf7c3dbfd,5c7dc31ade6f79001849c3a3,"[119, 33, 21, 251, 69, 243, 53, 91, 126, 37, 73, 39, 242, 115, 34, 233, 49, 62, 4, 137, 45, 158, 137, 1, 235, 28, 250, 20, 241, 206, 9, 244]",5ef0c931cace092dd8a8dd64,5c7dc31ade6f79001849c3a3,5ef0d53ef2d2bf65ffe0ae88,True,,,,,,,,12626.835000235587,,,,,"{""multichoice_discrimination"":""3. very confident that two letters were Q and X""}",[0],,,,,,
,p5Text,30,186933,0.0-2.0-4.0,f078aa2862041786868ef9f2ad23336df49386eb98fe8259951830bdf7c3dbfd,5c7dc31ade6f79001849c3a3,"[119, 33, 21, 251, 69, 243, 53, 91, 126, 37, 73, 39, 242, 115, 34, 233, 49, 62, 4, 137, 45, 158, 137, 1, 235, 28, 250, 20, 241, 206, 9, 244]",5ef0c931cace092dd8a8dd64,5c7dc31ade6f79001849c3a3,5ef0d53ef2d2bf65ffe0ae88,True,,,,,,,,,,,,,,,,,,,,
,disc,31,191016,0.0-2.0-5.0-0.0,f078aa2862041786868ef9f2ad23336df49386eb98fe8259951830bdf7c3dbfd,5c7dc31ade6f79001849c3a3,"[119, 33, 21, 251, 69, 243, 53, 91, 126, 37, 73, 39, 242, 115, 34, 233, 49, 62, 4, 137, 45, 158, 137, 1, 235, 28, 250, 20, 241, 206, 9, 244]",5ef0c931cace092dd8a8dd64,5c7dc31ade6f79001849c3a3,5ef0d53ef2d2bf65ffe0ae88,True,1.0,731.8500000983477,q,24.3,q,disc,1.0,,,,0.802207074112231,2144.5450000464916,,,,,,,,
,disc,32,193985,0.0-2.0-5.0-0.1,f078aa2862041786868ef9f2ad23336df49386eb98fe8259951830bdf7c3dbfd,5c7dc31ade6f79001849c3a3,"[119, 33, 21, 251, 69, 243, 53, 91, 126, 37, 73, 39, 242, 115, 34, 233, 49, 62, 4, 137, 45, 158, 137, 1, 235, 28, 250, 20, 241, 206, 9, 244]",5ef0c931cace092dd8a8dd64,5c7dc31ade6f79001849c3a3,5ef0d53ef2d2bf65ffe0ae88,True,2.0,564.1000000759959,w,21.87,w,disc,1.0,,,,0.38346424854108,1188.035000115633,,,,,,,,
,disc,33,197055,0.0-2.0-5.0-0.2,f078aa2862041786868ef9f2ad23336df49386eb98fe8259951830bdf7c3dbfd,5c7dc31ade6f79001849c3a3,"[119, 33, 21, 251, 69, 243, 53, 91, 126, 37, 73, 39, 242, 115, 34, 233, 49, 62, 4, 137, 45, 158, 137, 1, 235, 28, 250, 20, 241, 206, 9, 244]",5ef0c931cace092dd8a8dd64,5c7dc31ade6f79001849c3a3,5ef0d53ef2d2bf65ffe0ae88,True,1.0,587.909999769181,q,21.87,q,disc,1.0,,,,0.7709638031525761,1266.695000231266,,,,,,,,
,disc,34,201059,0.0-2.0-5.0-0.3,f078aa2862041786868ef9f2ad23336df49386eb98fe8259951830bdf7c3dbfd,5c7dc31ade6f79001849c3a3,"[119, 33, 21, 251, 69, 243, 53, 91, 126, 37, 73, 39, 242, 115, 34, 233, 49, 62, 4, 137, 45, 158, 137, 1, 235, 28, 250, 20, 241, 206, 9, 244]",5ef0c931cace092dd8a8dd64,5c7dc31ade6f79001849c3a3,5ef0d53ef2d2bf65ffe0ae88,True,2.0,1309.1150000691414,w,19.683,w,disc,1.0,,,,0.0,1492.5500000827014,,,,,,,,
,disc,35,203743,0.0-2.0-5.0-0.4,f078aa2862041786868ef9f2ad23336df49386eb98fe8259951830bdf7c3dbfd,5c7dc31ade6f79001849c3a3,"[119, 33, 21, 251, 69, 243, 53, 91, 126, 37, 73, 39, 242, 115, 34, 233, 49, 62, 4, 137, 45, 158, 137, 1, 235, 28, 250, 20, 241, 206, 9, 244]",5ef0c931cace092dd8a8dd64,5c7dc31ade6f79001849c3a3,5ef0d53ef2d2bf65ffe0ae88,True,1.0,668.8099997118115,q,19.683,q,disc,1.0,,,,0.653380946307457,805.7800000533462,,,,,,,,
,disc,36,207112,0.0-2.0-5.0-0.5,f078aa2862041786868ef9f2ad23336df49386eb98fe8259951830bdf7c3dbfd,5c7dc31ade6f79001849c3a3,"[119, 33, 21, 251, 69, 243, 53, 91, 126, 37, 73, 39, 242, 115, 34, 233, 49, 62, 4, 137, 45, 158, 137, 1, 235, 28, 250, 20, 241, 206, 9, 244]",5ef0c931cace092dd8a8dd64,5c7dc31ade6f79001849c3a3,5ef0d53ef2d2bf65ffe0ae88,True,2.0,876.8100002780557,w,17.7147,w,disc,1.0,,,,0.38901820705828205,1277.9049999080598,,,,,,,,
,disc,37,211017,0.0-2.0-5.0-0.6,f078aa2862041786868ef9f2ad23336df49386eb98fe8259951830bdf7c3dbfd,5c7dc31ade6f79001849c3a3,"[119, 33, 21, 251, 69, 243, 53, 91, 126, 37, 73, 39, 242, 115, 34, 233, 49, 62, 4, 137, 45, 158, 137, 1, 235, 28, 250, 20, 241, 206, 9, 244]",5ef0c931cace092dd8a8dd64,5c7dc31ade6f79001849c3a3,5ef0d53ef2d2bf65ffe0ae88,True,2.0,1468.2050002738833,w,17.7147,w,disc,1.0,,,,0.20587770389051102,1232.1199998259544,,,,,,,,
,disc,38,214351,0.0-2.0-5.0-0.7,f078aa2862041786868ef9f2ad23336df49386eb98fe8259951830bdf7c3dbfd,5c7dc31ade6f79001849c3a3,"[119, 33, 21, 251, 69, 243, 53, 91, 126, 37, 73, 39, 242, 115, 34, 233, 49, 62, 4, 137, 45, 158, 137, 1, 235, 28, 250, 20, 241, 206, 9, 244]",5ef0c931cace092dd8a8dd64,5c7dc31ade6f79001849c3a3,5ef0d53ef2d2bf65ffe0ae88,True,1.0,903.7450002506375,q,15.943230000000002,q,disc,1.0,,,,1.0,1221.7799997888505,,,,,,,,
,disc,39,217722,0.0-2.0-5.0-0.8,f078aa2862041786868ef9f2ad23336df49386eb98fe8259951830bdf7c3dbfd,5c7dc31ade6f79001849c3a3,"[119, 33, 21, 251, 69, 243, 53, 91, 126, 37, 73, 39, 242, 115, 34, 233, 49, 62, 4, 137, 45, 158, 137, 1, 235, 28, 250, 20, 241, 206, 9, 244]",5ef0c931cace092dd8a8dd64,5c7dc31ade6f79001849c3a3,5ef0d53ef2d2bf65ffe0ae88,True,1.0,765.0000001303852,q,15.943230000000002,q,disc,1.0,,,,0.735352808563691,1391.2100000306964,,,,,,,,
,disc,40,220957,0.0-2.0-5.0-0.9,f078aa2862041786868ef9f2ad23336df49386eb98fe8259951830bdf7c3dbfd,5c7dc31ade6f79001849c3a3,"[119, 33, 21, 251, 69, 243, 53, 91, 126, 37, 73, 39, 242, 115, 34, 233, 49, 62, 4, 137, 45, 158, 137, 1, 235, 28, 250, 20, 241, 206, 9, 244]",5ef0c931cace092dd8a8dd64,5c7dc31ade6f79001849c3a3,5ef0d53ef2d2bf65ffe0ae88,True,2.0,612.2349998913705,w,14.348907000000002,w,disc,1.0,,,,0.27698705099889703,1412.1349998749793,,,,,,,,
,disc,41,224394,0.0-2.0-5.0-0.10,f078aa2862041786868ef9f2ad23336df49386eb98fe8259951830bdf7c3dbfd,5c7dc31ade6f79001849c3a3,"[119, 33, 21, 251, 69, 243, 53, 91, 126, 37, 73, 39, 242, 115, 34, 233, 49, 62, 4, 137, 45, 158, 137, 1, 235, 28, 250, 20, 241, 206, 9, 244]",5ef0c931cace092dd8a8dd64,5c7dc31ade6f79001849c3a3,5ef0d53ef2d2bf65ffe0ae88,True,2.0,1302.4200000800192,w,14.348907000000002,w,disc,1.0,,,,0.22537057422379203,917.3500002361834,,,,,,,,
,disc,42,227496,0.0-2.0-5.0-0.11,f078aa2862041786868ef9f2ad23336df49386eb98fe8259951830bdf7c3dbfd,5c7dc31ade6f79001849c3a3,"[119, 33, 21, 251, 69, 243, 53, 91, 126, 37, 73, 39, 242, 115, 34, 233, 49, 62, 4, 137, 45, 158, 137, 1, 235, 28, 250, 20, 241, 206, 9, 244]",5ef0c931cace092dd8a8dd64,5c7dc31ade6f79001849c3a3,5ef0d53ef2d2bf65ffe0ae88,True,1.0,623.8599997013807,q,12.914016300000002,q,disc,1.0,,,,0.6984004742069251,1276.920000091195,,,,,,,,
,disc,43,230681,0.0-2.0-5.0-0.12,f078aa2862041786868ef9f2ad23336df49386eb98fe8259951830bdf7c3dbfd,5c7dc31ade6f79001849c3a3,"[119, 33, 21, 251, 69, 243, 53, 91, 126, 37, 73, 39, 242, 115, 34, 233, 49, 62, 4, 137, 45, 158, 137, 1, 235, 28, 250, 20, 241, 206, 9, 244]",5ef0c931cace092dd8a8dd64,5c7dc31ade6f79001849c3a3,5ef0d53ef2d2bf65ffe0ae88,True,1.0,759.8149999976158,q,12.914016300000002,q,disc,1.0,,,,0.22284843689022002,1209.840000141412,,,,,,,,
,disc,44,235303,0.0-2.0-5.0-0.13,f078aa2862041786868ef9f2ad23336df49386eb98fe8259951830bdf7c3dbfd,5c7dc31ade6f79001849c3a3,"[119, 33, 21, 251, 69, 243, 53, 91, 126, 37, 73, 39, 242, 115, 34, 233, 49, 62, 4, 137, 45, 158, 137, 1, 235, 28, 250, 20, 241, 206, 9, 244]",5ef0c931cace092dd8a8dd64,5c7dc31ade6f79001849c3a3,5ef0d53ef2d2bf65ffe0ae88,True,2.0,1940.065000206232,w,11.622614670000003,w,disc,1.0,,,,0.042945582091804005,1468.994999770075,,,,,,,,
,disc,45,238222,0.0-2.0-5.0-0.14,f078aa2862041786868ef9f2ad23336df49386eb98fe8259951830bdf7c3dbfd,5c7dc31ade6f79001849c3a3,"[119, 33, 21, 251, 69, 243, 53, 91, 126, 37, 73, 39, 242, 115, 34, 233, 49, 62, 4, 137, 45, 158, 137, 1, 235, 28, 250, 20, 241, 206, 9, 244]",5ef0c931cace092dd8a8dd64,5c7dc31ade6f79001849c3a3,5ef0d53ef2d2bf65ffe0ae88,True,1.0,614.4400001503527,q,11.622614670000003,q,disc,1.0,,,,0.781737516140361,1087.1150000020862,,,,,,,,
,disc,46,242642,0.0-2.0-5.0-0.15,f078aa2862041786868ef9f2ad23336df49386eb98fe8259951830bdf7c3dbfd,5c7dc31ade6f79001849c3a3,"[119, 33, 21, 251, 69, 243, 53, 91, 126, 37, 73, 39, 242, 115, 34, 233, 49, 62, 4, 137, 45, 158, 137, 1, 235, 28, 250, 20, 241, 206, 9, 244]",5ef0c931cace092dd8a8dd64,5c7dc31ade6f79001849c3a3,5ef0d53ef2d2bf65ffe0ae88,True,2.0,1340.6400000676513,w,10.460353203000002,w,disc,1.0,,,,0.339032945535369,1862.7549996599555,,,,,,,,
,disc,47,246160,0.0-2.0-5.0-0.16,f078aa2862041786868ef9f2ad23336df49386eb98fe8259951830bdf7c3dbfd,5c7dc31ade6f79001849c3a3,"[119, 33, 21, 251, 69, 243, 53, 91, 126, 37, 73, 39, 242, 115, 34, 233, 49, 62, 4, 137, 45, 158, 137, 1, 235, 28, 250, 20, 241, 206, 9, 244]",5ef0c931cace092dd8a8dd64,5c7dc31ade6f79001849c3a3,5ef0d53ef2d2bf65ffe0ae88,True,1.0,711.3100001588464,q,10.460353203000002,q,disc,1.0,,,,0.374552295777045,1604.3300000019372,,,,,,,,
,disc,48,249264,0.0-2.0-5.0-0.17,f078aa2862041786868ef9f2ad23336df49386eb98fe8259951830bdf7c3dbfd,5c7dc31ade6f79001849c3a3,"[119, 33, 21, 251, 69, 243, 53, 91, 126, 37, 73, 39, 242, 115, 34, 233, 49, 62, 4, 137, 45, 158, 137, 1, 235, 28, 250, 20, 241, 206, 9, 244]",5ef0c931cace092dd8a8dd64,5c7dc31ade6f79001849c3a3,5ef0d53ef2d2bf65ffe0ae88,True,2.0,834.8199999891222,q,9.414317882700002,w,disc,0.0,,,,0.6458185496533271,1056.2050002627075,,,,,,,,
,p5Text,49,328121,0.0-2.0-6.0,f078aa2862041786868ef9f2ad23336df49386eb98fe8259951830bdf7c3dbfd,5c7dc31ade6f79001849c3a3,"[119, 33, 21, 251, 69, 243, 53, 91, 126, 37, 73, 39, 242, 115, 34, 233, 49, 62, 4, 137, 45, 158, 137, 1, 235, 28, 250, 20, 241, 206, 9, 244]",5ef0c931cace092dd8a8dd64,5c7dc31ade6f79001849c3a3,5ef0d53ef2d2bf65ffe0ae88,True,,,,,,,,,,,,,,,,,,,,
,p5Text,50,334069,0.0-2.0-7.0,f078aa2862041786868ef9f2ad23336df49386eb98fe8259951830bdf7c3dbfd,5c7dc31ade6f79001849c3a3,"[119, 33, 21, 251, 69, 243, 53, 91, 126, 37, 73, 39, 242, 115, 34, 233, 49, 62, 4, 137, 45, 158, 137, 1, 235, 28, 250, 20, 241, 206, 9, 244]",5ef0c931cace092dd8a8dd64,5c7dc31ade6f79001849c3a3,5ef0d53ef2d2bf65ffe0ae88,True,,,,,,,,,,,,,,,,,,,,
,disc,51,337667,0.0-2.0-8.0-0.0,f078aa2862041786868ef9f2ad23336df49386eb98fe8259951830bdf7c3dbfd,5c7dc31ade6f79001849c3a3,"[119, 33, 21, 251, 69, 243, 53, 91, 126, 37, 73, 39, 242, 115, 34, 233, 49, 62, 4, 137, 45, 158, 137, 1, 235, 28, 250, 20, 241, 206, 9, 244]",5ef0c931cace092dd8a8dd64,5c7dc31ade6f79001849c3a3,5ef0d53ef2d2bf65ffe0ae88,True,1.0,678.6400000564754,q,10.460353203000002,q,disc,1.0,,,,0.34589836589621903,1705.4550000466406,,,,,,,,
,disc,52,340369,0.0-2.0-8.0-0.1,f078aa2862041786868ef9f2ad23336df49386eb98fe8259951830bdf7c3dbfd,5c7dc31ade6f79001849c3a3,"[119, 33, 21, 251, 69, 243, 53, 91, 126, 37, 73, 39, 242, 115, 34, 233, 49, 62, 4, 137, 45, 158, 137, 1, 235, 28, 250, 20, 241, 206, 9, 244]",5ef0c931cace092dd8a8dd64,5c7dc31ade6f79001849c3a3,5ef0d53ef2d2bf65ffe0ae88,True,2.0,603.2650000415742,w,10.460353203000002,w,disc,1.0,,,,0.8677305210964791,895.5600000917912,,,,,,,,
,disc,53,343523,0.0-2.0-8.0-0.2,f078aa2862041786868ef9f2ad23336df49386eb98fe8259951830bdf7c3dbfd,5c7dc31ade6f79001849c3a3,"[119, 33, 21, 251, 69, 243, 53, 91, 126, 37, 73, 39, 242, 115, 34, 233, 49, 62, 4, 137, 45, 158, 137, 1, 235, 28, 250, 20, 241, 206, 9, 244]",5ef0c931cace092dd8a8dd64,5c7dc31ade6f79001849c3a3,5ef0d53ef2d2bf65ffe0ae88,True,2.0,840.0400001555681,w,9.414317882700002,w,disc,1.0,,,,0.49012499670493104,1106.015000026673,,,,,,,,
,disc,54,346357,0.0-2.0-8.0-0.3,f078aa2862041786868ef9f2ad23336df49386eb98fe8259951830bdf7c3dbfd,5c7dc31ade6f79001849c3a3,"[119, 33, 21, 251, 69, 243, 53, 91, 126, 37, 73, 39, 242, 115, 34, 233, 49, 62, 4, 137, 45, 158, 137, 1, 235, 28, 250, 20, 241, 206, 9, 244]",5ef0c931cace092dd8a8dd64,5c7dc31ade6f79001849c3a3,5ef0d53ef2d2bf65ffe0ae88,True,1.0,667.5599999725819,q,9.414317882700002,q,disc,1.0,,,,0.7680218763973791,960.3350004181266,,,,,,,,
,disc,55,349678,0.0-2.0-8.0-0.4,f078aa2862041786868ef9f2ad23336df49386eb98fe8259951830bdf7c3dbfd,5c7dc31ade6f79001849c3a3,"[119, 33, 21, 251, 69, 243, 53, 91, 126, 37, 73, 39, 242, 115, 34, 233, 49, 62, 4, 137, 45, 158, 137, 1, 235, 28, 250, 20, 241, 206, 9, 244]",5ef0c931cace092dd8a8dd64,5c7dc31ade6f79001849c3a3,5ef0d53ef2d2bf65ffe0ae88,True,1.0,879.5949998311698,q,8.472886094430002,q,disc,1.0,,,,0.33609500446481405,1232.4500000104308,,,,,,,,
,disc,56,353446,0.0-2.0-8.0-0.5,f078aa2862041786868ef9f2ad23336df49386eb98fe8259951830bdf7c3dbfd,5c7dc31ade6f79001849c3a3,"[119, 33, 21, 251, 69, 243, 53, 91, 126, 37, 73, 39, 242, 115, 34, 233, 49, 62, 4, 137, 45, 158, 137, 1, 235, 28, 250, 20, 241, 206, 9, 244]",5ef0c931cace092dd8a8dd64,5c7dc31ade6f79001849c3a3,5ef0d53ef2d2bf65ffe0ae88,True,2.0,1002.109999768436,w,8.472886094430002,w,disc,1.0,,,,0.115646258503401,1558.6000001057982,,,,,,,,
,disc,57,356700,0.0-2.0-8.0-0.6,f078aa2862041786868ef9f2ad23336df49386eb98fe8259951830bdf7c3dbfd,5c7dc31ade6f79001849c3a3,"[119, 33, 21, 251, 69, 243, 53, 91, 126, 37, 73, 39, 242, 115, 34, 233, 49, 62, 4, 137, 45, 158, 137, 1, 235, 28, 250, 20, 241, 206, 9, 244]",5ef0c931cace092dd8a8dd64,5c7dc31ade6f79001849c3a3,5ef0d53ef2d2bf65ffe0ae88,True,2.0,776.5500000678003,w,7.6255974849870025,w,disc,1.0,,,,0.8173873614621151,1266.7249999940395,,,,,,,,
,disc,58,360418,0.0-2.0-8.0-0.7,f078aa2862041786868ef9f2ad23336df49386eb98fe8259951830bdf7c3dbfd,5c7dc31ade6f79001849c3a3,"[119, 33, 21, 251, 69, 243, 53, 91, 126, 37, 73, 39, 242, 115, 34, 233, 49, 62, 4, 137, 45, 158, 137, 1, 235, 28, 250, 20, 241, 206, 9, 244]",5ef0c931cace092dd8a8dd64,5c7dc31ade6f79001849c3a3,5ef0d53ef2d2bf65ffe0ae88,True,1.0,796.7100003734231,q,7.6255974849870025,q,disc,1.0,,,,0.8925205824712311,1705.949999857694,,,,,,,,
,disc,59,363789,0.0-2.0-8.0-0.8,f078aa2862041786868ef9f2ad23336df49386eb98fe8259951830bdf7c3dbfd,5c7dc31ade6f79001849c3a3,"[119, 33, 21, 251, 69, 243, 53, 91, 126, 37, 73, 39, 242, 115, 34, 233, 49, 62, 4, 137, 45, 158, 137, 1, 235, 28, 250, 20, 241, 206, 9, 244]",5ef0c931cace092dd8a8dd64,5c7dc31ade6f79001849c3a3,5ef0d53ef2d2bf65ffe0ae88,True,2.0,1094.3450001068413,w,6.8630377364883035,w,disc,1.0,,,,0.46151399571268703,1064.010000322014,,,,,,,,
,disc,60,366773,0.0-2.0-8.0-0.9,f078aa2862041786868ef9f2ad23336df49386eb98fe8259951830bdf7c3dbfd,5c7dc31ade6f79001849c3a3,"[119, 33, 21, 251, 69, 243, 53, 91, 126, 37, 73, 39, 242, 115, 34, 233, 49, 62, 4, 137, 45, 158, 137, 1, 235, 28, 250, 20, 241, 206, 9, 244]",5ef0c931cace092dd8a8dd64,5c7dc31ade6f79001849c3a3,5ef0d53ef2d2bf65ffe0ae88,True,1.0,649.3049999698997,q,6.8630377364883035,q,disc,1.0,,,,0.832568616540675,1120.1949999667704,,,,,,,,
,disc,61,371362,0.0-2.0-8.0-0.10,f078aa2862041786868ef9f2ad23336df49386eb98fe8259951830bdf7c3dbfd,5c7dc31ade6f79001849c3a3,"[119, 33, 21, 251, 69, 243, 53, 91, 126, 37, 73, 39, 242, 115, 34, 233, 49, 62, 4, 137, 45, 158, 137, 1, 235, 28, 250, 20, 241, 206, 9, 244]",5ef0c931cace092dd8a8dd64,5c7dc31ade6f79001849c3a3,5ef0d53ef2d2bf65ffe0ae88,True,2.0,1209.4100001268089,w,6.176733962839473,w,disc,1.0,,,,0.06224235961471201,2164.99499976635,,,,,,,,
,disc,62,374364,0.0-2.0-8.0-0.11,f078aa2862041786868ef9f2ad23336df49386eb98fe8259951830bdf7c3dbfd,5c7dc31ade6f79001849c3a3,"[119, 33, 21, 251, 69, 243, 53, 91, 126, 37, 73, 39, 242, 115, 34, 233, 49, 62, 4, 137, 45, 158, 137, 1, 235, 28, 250, 20, 241, 206, 9, 244]",5ef0c931cace092dd8a8dd64,5c7dc31ade6f79001849c3a3,5ef0d53ef2d2bf65ffe0ae88,True,1.0,806.3400001265109,q,6.176733962839473,q,disc,1.0,,,,1.0,983.8250000029802,,,,,,,,
,disc,63,377382,0.0-2.0-8.0-0.12,f078aa2862041786868ef9f2ad23336df49386eb98fe8259951830bdf7c3dbfd,5c7dc31ade6f79001849c3a3,"[119, 33, 21, 251, 69, 243, 53, 91, 126, 37, 73, 39, 242, 115, 34, 233, 49, 62, 4, 137, 45, 158, 137, 1, 235, 28, 250, 20, 241, 206, 9, 244]",5ef0c931cace092dd8a8dd64,5c7dc31ade6f79001849c3a3,5ef0d53ef2d2bf65ffe0ae88,True,1.0,705.5750000290573,q,5.559060566555526,q,disc,1.0,,,,1.0,1096.8799996189773,,,,,,,,
,disc,64,381153,0.0-2.0-8.0-0.13,f078aa2862041786868ef9f2ad23336df49386eb98fe8259951830bdf7c3dbfd,5c7dc31ade6f79001849c3a3,"[119, 33, 21, 251, 69, 243, 53, 91, 126, 37, 73, 39, 242, 115, 34, 233, 49, 62, 4, 137, 45, 158, 137, 1, 235, 28, 250, 20, 241, 206, 9, 244]",5ef0c931cace092dd8a8dd64,5c7dc31ade6f79001849c3a3,5ef0d53ef2d2bf65ffe0ae88,True,2.0,614.2750000581145,w,5.559060566555526,w,disc,1.0,,,,0.625338460598264,1951.4000001363456,,,,,,,,
,disc,65,384621,0.0-2.0-8.0-0.14,f078aa2862041786868ef9f2ad23336df49386eb98fe8259951830bdf7c3dbfd,5c7dc31ade6f79001849c3a3,"[119, 33, 21, 251, 69, 243, 53, 91, 126, 37, 73, 39, 242, 115, 34, 233, 49, 62, 4, 137, 45, 158, 137, 1, 235, 28, 250, 20, 241, 206, 9, 244]",5ef0c931cace092dd8a8dd64,5c7dc31ade6f79001849c3a3,5ef0d53ef2d2bf65ffe0ae88,True,1.0,745.0899998657405,q,5.003154509899973,q,disc,1.0,,,,0.14997609863987502,1513.9950001612306,,,,,,,,
,disc,66,387574,0.0-2.0-8.0-0.15,f078aa2862041786868ef9f2ad23336df49386eb98fe8259951830bdf7c3dbfd,5c7dc31ade6f79001849c3a3,"[119, 33, 21, 251, 69, 243, 53, 91, 126, 37, 73, 39, 242, 115, 34, 233, 49, 62, 4, 137, 45, 158, 137, 1, 235, 28, 250, 20, 241, 206, 9, 244]",5ef0c931cace092dd8a8dd64,5c7dc31ade6f79001849c3a3,5ef0d53ef2d2bf65ffe0ae88,True,2.0,707.8650002367795,q,5.003154509899973,w,disc,0.0,,,,0.8185432964798051,1041.6349996812642,,,,,,,,
,disc,67,390292,0.0-2.0-8.0-0.16,f078aa2862041786868ef9f2ad23336df49386eb98fe8259951830bdf7c3dbfd,5c7dc31ade6f79001849c3a3,"[119, 33, 21, 251, 69, 243, 53, 91, 126, 37, 73, 39, 242, 115, 34, 233, 49, 62, 4, 137, 45, 158, 137, 1, 235, 28, 250, 20, 241, 206, 9, 244]",5ef0c931cace092dd8a8dd64,5c7dc31ade6f79001849c3a3,5ef0d53ef2d2bf65ffe0ae88,True,1.0,748.6099996604025,q,5.559060566555526,q,disc,1.0,,,,1.0,759.2100002802908,,,,,,,,
,disc,68,393796,0.0-2.0-8.0-0.17,f078aa2862041786868ef9f2ad23336df49386eb98fe8259951830bdf7c3dbfd,5c7dc31ade6f79001849c3a3,"[119, 33, 21, 251, 69, 243, 53, 91, 126, 37, 73, 39, 242, 115, 34, 233, 49, 62, 4, 137, 45, 158, 137, 1, 235, 28, 250, 20, 241, 206, 9, 244]",5ef0c931cace092dd8a8dd64,5c7dc31ade6f79001849c3a3,5ef0d53ef2d2bf65ffe0ae88,True,2.0,833.5099997930229,w,5.559060566555526,w,disc,1.0,,,,0.007727507627065,1455.4050001315773,,,,,,,,
,p5Text,69,403043,0.0-2.0-9.0,f078aa2862041786868ef9f2ad23336df49386eb98fe8259951830bdf7c3dbfd,5c7dc31ade6f79001849c3a3,"[119, 33, 21, 251, 69, 243, 53, 91, 126, 37, 73, 39, 242, 115, 34, 233, 49, 62, 4, 137, 45, 158, 137, 1, 235, 28, 250, 20, 241, 206, 9, 244]",5ef0c931cace092dd8a8dd64,5c7dc31ade6f79001849c3a3,5ef0d53ef2d2bf65ffe0ae88,True,,,,,,,,,,,,,,,,,,,,
,call-function,70,403044,0.0-2.0-10.0,f078aa2862041786868ef9f2ad23336df49386eb98fe8259951830bdf7c3dbfd,5c7dc31ade6f79001849c3a3,"[119, 33, 21, 251, 69, 243, 53, 91, 126, 37, 73, 39, 242, 115, 34, 233, 49, 62, 4, 137, 45, 158, 137, 1, 235, 28, 250, 20, 241, 206, 9, 244]",5ef0c931cace092dd8a8dd64,5c7dc31ade6f79001849c3a3,5ef0d53ef2d2bf65ffe0ae88,True,,,,,,,,,,,,,,,,,,,,
,p5Text,71,421362,0.0-3.0-0.0-0.0,f078aa2862041786868ef9f2ad23336df49386eb98fe8259951830bdf7c3dbfd,5c7dc31ade6f79001849c3a3,"[119, 33, 21, 251, 69, 243, 53, 91, 126, 37, 73, 39, 242, 115, 34, 233, 49, 62, 4, 137, 45, 158, 137, 1, 235, 28, 250, 20, 241, 206, 9, 244]",5ef0c931cace092dd8a8dd64,5c7dc31ade6f79001849c3a3,5ef0d53ef2d2bf65ffe0ae88,True,,,,,,,,,,,,,,,,,,,,
,p5vs_yn,72,427823,0.0-3.0-0.0-1.0-0.0,f078aa2862041786868ef9f2ad23336df49386eb98fe8259951830bdf7c3dbfd,5c7dc31ade6f79001849c3a3,"[119, 33, 21, 251, 69, 243, 53, 91, 126, 37, 73, 39, 242, 115, 34, 233, 49, 62, 4, 137, 45, 158, 137, 1, 235, 28, 250, 20, 241, 206, 9, 244]",5ef0c931cace092dd8a8dd64,5c7dc31ade6f79001849c3a3,5ef0d53ef2d2bf65ffe0ae88,True,,5903.187448740937,j,,j,practice_Q_in_O,1.0,,,,,,,,3.0,1.0,"[-0.099999999999999, -0.30000000000000004]","[[-0.30000000000000004, 0.30000000000000004], [0.099999999999999, 0.30000000000000004], [0.099999999999999, -0.099999999999999]]",47.36755124758929,
,html-keyboard-response,73,428830,0.0-3.0-0.0-1.0-1.0,f078aa2862041786868ef9f2ad23336df49386eb98fe8259951830bdf7c3dbfd,5c7dc31ade6f79001849c3a3,"[119, 33, 21, 251, 69, 243, 53, 91, 126, 37, 73, 39, 242, 115, 34, 233, 49, 62, 4, 137, 45, 158, 137, 1, 235, 28, 250, 20, 241, 206, 9, 244]",5ef0c931cace092dd8a8dd64,5c7dc31ade6f79001849c3a3,5ef0d53ef2d2bf65ffe0ae88,True,,,,,,,,,"<div style=""width:150px;height:56px;font-size:30px;text-align:center;"">correct!</div>",,,,,,,,,,,
,p5vs_yn,74,430910,0.0-3.0-0.0-1.0-0.1,f078aa2862041786868ef9f2ad23336df49386eb98fe8259951830bdf7c3dbfd,5c7dc31ade6f79001849c3a3,"[119, 33, 21, 251, 69, 243, 53, 91, 126, 37, 73, 39, 242, 115, 34, 233, 49, 62, 4, 137, 45, 158, 137, 1, 235, 28, 250, 20, 241, 206, 9, 244]",5ef0c931cace092dd8a8dd64,5c7dc31ade6f79001849c3a3,5ef0d53ef2d2bf65ffe0ae88,True,,1491.506025660783,f,,f,practice_Q_in_O,1.0,,,,,,,,3.0,0.0,"[0.099999999999999, -0.099999999999999]","[[0.30000000000000004, 0.30000000000000004], [-0.099999999999999, -0.30000000000000004], [-0.30000000000000004, -0.30000000000000004]]",75.61897439882159,
,html-keyboard-response,75,431915,0.0-3.0-0.0-1.0-1.1,f078aa2862041786868ef9f2ad23336df49386eb98fe8259951830bdf7c3dbfd,5c7dc31ade6f79001849c3a3,"[119, 33, 21, 251, 69, 243, 53, 91, 126, 37, 73, 39, 242, 115, 34, 233, 49, 62, 4, 137, 45, 158, 137, 1, 235, 28, 250, 20, 241, 206, 9, 244]",5ef0c931cace092dd8a8dd64,5c7dc31ade6f79001849c3a3,5ef0d53ef2d2bf65ffe0ae88,True,,,,,,,,,"<div style=""width:150px;height:56px;font-size:30px;text-align:center;"">correct!</div>",,,,,,,,,,,
,p5vs_yn,76,433561,0.0-3.0-0.0-1.0-0.2,f078aa2862041786868ef9f2ad23336df49386eb98fe8259951830bdf7c3dbfd,5c7dc31ade6f79001849c3a3,"[119, 33, 21, 251, 69, 243, 53, 91, 126, 37, 73, 39, 242, 115, 34, 233, 49, 62, 4, 137, 45, 158, 137, 1, 235, 28, 250, 20, 241, 206, 9, 244]",5ef0c931cace092dd8a8dd64,5c7dc31ade6f79001849c3a3,5ef0d53ef2d2bf65ffe0ae88,True,,716.9574829749763,f,,f,practice_Q_in_O,1.0,,,,,,,,3.0,0.0,"[0.099999999999999, 0.30000000000000004]","[[-0.099999999999999, -0.099999999999999], [0.099999999999999, 0.099999999999999], [-0.099999999999999, 0.30000000000000004]]",423.67751710116863,
,html-keyboard-response,77,434564,0.0-3.0-0.0-1.0-1.2,f078aa2862041786868ef9f2ad23336df49386eb98fe8259951830bdf7c3dbfd,5c7dc31ade6f79001849c3a3,"[119, 33, 21, 251, 69, 243, 53, 91, 126, 37, 73, 39, 242, 115, 34, 233, 49, 62, 4, 137, 45, 158, 137, 1, 235, 28, 250, 20, 241, 206, 9, 244]",5ef0c931cace092dd8a8dd64,5c7dc31ade6f79001849c3a3,5ef0d53ef2d2bf65ffe0ae88,True,,,,,,,,,"<div style=""width:150px;height:56px;font-size:30px;text-align:center;"">correct!</div>",,,,,,,,,,,
,p5vs_yn,78,435913,0.0-3.0-0.0-1.0-0.3,f078aa2862041786868ef9f2ad23336df49386eb98fe8259951830bdf7c3dbfd,5c7dc31ade6f79001849c3a3,"[119, 33, 21, 251, 69, 243, 53, 91, 126, 37, 73, 39, 242, 115, 34, 233, 49, 62, 4, 137, 45, 158, 137, 1, 235, 28, 250, 20, 241, 206, 9, 244]",5ef0c931cace092dd8a8dd64,5c7dc31ade6f79001849c3a3,5ef0d53ef2d2bf65ffe0ae88,True,,637.9984801169485,j,,j,practice_Q_in_O,1.0,,,,,,,,3.0,1.0,"[0.30000000000000004, -0.30000000000000004]","[[0.099999999999999, 0.30000000000000004], [-0.099999999999999, 0.30000000000000004], [-0.30000000000000004, 0.099999999999999]]",201.59652014262974,
,html-keyboard-response,79,436919,0.0-3.0-0.0-1.0-1.3,f078aa2862041786868ef9f2ad23336df49386eb98fe8259951830bdf7c3dbfd,5c7dc31ade6f79001849c3a3,"[119, 33, 21, 251, 69, 243, 53, 91, 126, 37, 73, 39, 242, 115, 34, 233, 49, 62, 4, 137, 45, 158, 137, 1, 235, 28, 250, 20, 241, 206, 9, 244]",5ef0c931cace092dd8a8dd64,5c7dc31ade6f79001849c3a3,5ef0d53ef2d2bf65ffe0ae88,True,,,,,,,,,"<div style=""width:150px;height:56px;font-size:30px;text-align:center;"">correct!</div>",,,,,,,,,,,
,p5vs_yn,80,438564,0.0-3.0-1.0-0.0,f078aa2862041786868ef9f2ad23336df49386eb98fe8259951830bdf7c3dbfd,5c7dc31ade6f79001849c3a3,"[119, 33, 21, 251, 69, 243, 53, 91, 126, 37, 73, 39, 242, 115, 34, 233, 49, 62, 4, 137, 45, 158, 137, 1, 235, 28, 250, 20, 241, 206, 9, 244]",5ef0c931cace092dd8a8dd64,5c7dc31ade6f79001849c3a3,5ef0d53ef2d2bf65ffe0ae88,True,,761.6522468160838,f,,f,Q_in_O_vs,1.0,,,,,,,,2.0,0.0,"[0.099999999999999, -0.30000000000000004]","[[-0.099999999999999, 0.099999999999999], [-0.30000000000000004, -0.30000000000000004]]",378.3277531620115,
,html-keyboard-response,81,439566,0.0-3.0-1.0-1.0,f078aa2862041786868ef9f2ad23336df49386eb98fe8259951830bdf7c3dbfd,5c7dc31ade6f79001849c3a3,"[119, 33, 21, 251, 69, 243, 53, 91, 126, 37, 73, 39, 242, 115, 34, 233, 49, 62, 4, 137, 45, 158, 137, 1, 235, 28, 250, 20, 241, 206, 9, 244]",5ef0c931cace092dd8a8dd64,5c7dc31ade6f79001849c3a3,5ef0d53ef2d2bf65ffe0ae88,True,,,,,,,,,"<div style=""width:150px;height:56px;font-size:30px;text-align:center;"">correct!</div>",,,,,,,,,,,
,p5vs_yn,82,440349,0.0-3.0-1.0-0.1,f078aa2862041786868ef9f2ad23336df49386eb98fe8259951830bdf7c3dbfd,5c7dc31ade6f79001849c3a3,"[119, 33, 21, 251, 69, 243, 53, 91, 126, 37, 73, 39, 242, 115, 34, 233, 49, 62, 4, 137, 45, 158, 137, 1, 235, 28, 250, 20, 241, 206, 9, 244]",5ef0c931cace092dd8a8dd64,5c7dc31ade6f79001849c3a3,5ef0d53ef2d2bf65ffe0ae88,True,,219.68828875105828,j,,j,Q_in_O_vs,1.0,,,,,,,,1.0,1.0,"[-0.099999999999999, 0.30000000000000004]","[[0.099999999999999, -0.099999999999999]]",60.851711430586874,
,html-keyboard-response,83,441355,0.0-3.0-1.0-1.1,f078aa2862041786868ef9f2ad23336df49386eb98fe8259951830bdf7c3dbfd,5c7dc31ade6f79001849c3a3,"[119, 33, 21, 251, 69, 243, 53, 91, 126, 37, 73, 39, 242, 115, 34, 233, 49, 62, 4, 137, 45, 158, 137, 1, 235, 28, 250, 20, 241, 206, 9, 244]",5ef0c931cace092dd8a8dd64,5c7dc31ade6f79001849c3a3,5ef0d53ef2d2bf65ffe0ae88,True,,,,,,,,,"<div style=""width:150px;height:56px;font-size:30px;text-align:center;"">correct!</div>",,,,,,,,,,,
,p5vs_yn,84,442685,0.0-3.0-1.0-0.2,f078aa2862041786868ef9f2ad23336df49386eb98fe8259951830bdf7c3dbfd,5c7dc31ade6f79001849c3a3,"[119, 33, 21, 251, 69, 243, 53, 91, 126, 37, 73, 39, 242, 115, 34, 233, 49, 62, 4, 137, 45, 158, 137, 1, 235, 28, 250, 20, 241, 206, 9, 244]",5ef0c931cace092dd8a8dd64,5c7dc31ade6f79001849c3a3,5ef0d53ef2d2bf65ffe0ae88,True,,680.907387053594,j,,j,Q_in_O_vs,1.0,,,,,,,,4.0,1.0,"[0, 0.33333333333333304]","[[-0.33333333333333304, 0.33333333333333304], [-0.16666666666666602, -0.16666666666666602], [0.33333333333333304, 0.16666666666666602], [0, -0.16666666666666602]]",140.2276128064841,
,html-keyboard-response,85,443688,0.0-3.0-1.0-1.2,f078aa2862041786868ef9f2ad23336df49386eb98fe8259951830bdf7c3dbfd,5c7dc31ade6f79001849c3a3,"[119, 33, 21, 251, 69, 243, 53, 91, 126, 37, 73, 39, 242, 115, 34, 233, 49, 62, 4, 137, 45, 158, 137, 1, 235, 28, 250, 20, 241, 206, 9, 244]",5ef0c931cace092dd8a8dd64,5c7dc31ade6f79001849c3a3,5ef0d53ef2d2bf65ffe0ae88,True,,,,,,,,,"<div style=""width:150px;height:56px;font-size:30px;text-align:center;"">correct!</div>",,,,,,,,,,,
,p5vs_yn,86,445137,0.0-3.0-1.0-0.3,f078aa2862041786868ef9f2ad23336df49386eb98fe8259951830bdf7c3dbfd,5c7dc31ade6f79001849c3a3,"[119, 33, 21, 251, 69, 243, 53, 91, 126, 37, 73, 39, 242, 115, 34, 233, 49, 62, 4, 137, 45, 158, 137, 1, 235, 28, 250, 20, 241, 206, 9, 244]",5ef0c931cace092dd8a8dd64,5c7dc31ade6f79001849c3a3,5ef0d53ef2d2bf65ffe0ae88,True,,521.2337785633281,f,,f,Q_in_O_vs,1.0,,,,,,,,1.0,0.0,"[0.099999999999999, 0.099999999999999]","[[0.30000000000000004, -0.099999999999999]]",419.32122164871544,
,html-keyboard-response,87,446139,0.0-3.0-1.0-1.3,f078aa2862041786868ef9f2ad23336df49386eb98fe8259951830bdf7c3dbfd,5c7dc31ade6f79001849c3a3,"[119, 33, 21, 251, 69, 243, 53, 91, 126, 37, 73, 39, 242, 115, 34, 233, 49, 62, 4, 137, 45, 158, 137, 1, 235, 28, 250, 20, 241, 206, 9, 244]",5ef0c931cace092dd8a8dd64,5c7dc31ade6f79001849c3a3,5ef0d53ef2d2bf65ffe0ae88,True,,,,,,,,,"<div style=""width:150px;height:56px;font-size:30px;text-align:center;"">correct!</div>",,,,,,,,,,,
,p5vs_yn,88,447405,0.0-3.0-1.0-0.4,f078aa2862041786868ef9f2ad23336df49386eb98fe8259951830bdf7c3dbfd,5c7dc31ade6f79001849c3a3,"[119, 33, 21, 251, 69, 243, 53, 91, 126, 37, 73, 39, 242, 115, 34, 233, 49, 62, 4, 137, 45, 158, 137, 1, 235, 28, 250, 20, 241, 206, 9, 244]",5ef0c931cace092dd8a8dd64,5c7dc31ade6f79001849c3a3,5ef0d53ef2d2bf65ffe0ae88,True,,706.7220100434497,f,,f,Q_in_O_vs,1.0,,,,,,,,8.0,0.0,"[-0.33333333333333304, 0.16666666666666602]","[[0.16666666666666602, 0], [0, 0.16666666666666602], [-0.16666666666666602, 0], [0.33333333333333304, -0.33333333333333304], [-0.33333333333333304, 0.33333333333333304], [0.16666666666666602, 0.16666666666666602], [0.33333333333333304, 0.16666666666666602], [0.16666666666666602, 0.33333333333333304]]",43.85298991110176,
,html-keyboard-response,89,448407,0.0-3.0-1.0-1.4,f078aa2862041786868ef9f2ad23336df49386eb98fe8259951830bdf7c3dbfd,5c7dc31ade6f79001849c3a3,"[119, 33, 21, 251, 69, 243, 53, 91, 126, 37, 73, 39, 242, 115, 34, 233, 49, 62, 4, 137, 45, 158, 137, 1, 235, 28, 250, 20, 241, 206, 9, 244]",5ef0c931cace092dd8a8dd64,5c7dc31ade6f79001849c3a3,5ef0d53ef2d2bf65ffe0ae88,True,,,,,,,,,"<div style=""width:150px;height:56px;font-size:30px;text-align:center;"">correct!</div>",,,,,,,,,,,
,p5vs_yn,90,449890,0.0-3.0-1.0-0.5,f078aa2862041786868ef9f2ad23336df49386eb98fe8259951830bdf7c3dbfd,5c7dc31ade6f79001849c3a3,"[119, 33, 21, 251, 69, 243, 53, 91, 126, 37, 73, 39, 242, 115, 34, 233, 49, 62, 4, 137, 45, 158, 137, 1, 235, 28, 250, 20, 241, 206, 9, 244]",5ef0c931cace092dd8a8dd64,5c7dc31ade6f79001849c3a3,5ef0d53ef2d2bf65ffe0ae88,True,,573.7766039092094,j,,j,Q_in_O_vs,1.0,,,,,,,,8.0,1.0,"[0.33333333333333304, -0.33333333333333304]","[[0.16666666666666602, 0.33333333333333304], [-0.16666666666666602, 0.33333333333333304], [-0.16666666666666602, -0.16666666666666602], [0.16666666666666602, 0], [0, 0.33333333333333304], [-0.33333333333333304, 0.33333333333333304], [-0.33333333333333304, -0.33333333333333304], [0.33333333333333304, 0]]",406.57839621417224,
,html-keyboard-response,91,450892,0.0-3.0-1.0-1.5,f078aa2862041786868ef9f2ad23336df49386eb98fe8259951830bdf7c3dbfd,5c7dc31ade6f79001849c3a3,"[119, 33, 21, 251, 69, 243, 53, 91, 126, 37, 73, 39, 242, 115, 34, 233, 49, 62, 4, 137, 45, 158, 137, 1, 235, 28, 250, 20, 241, 206, 9, 244]",5ef0c931cace092dd8a8dd64,5c7dc31ade6f79001849c3a3,5ef0d53ef2d2bf65ffe0ae88,True,,,,,,,,,"<div style=""width:150px;height:56px;font-size:30px;text-align:center;"">correct!</div>",,,,,,,,,,,
,p5vs_yn,92,452445,0.0-3.0-1.0-0.6,f078aa2862041786868ef9f2ad23336df49386eb98fe8259951830bdf7c3dbfd,5c7dc31ade6f79001849c3a3,"[119, 33, 21, 251, 69, 243, 53, 91, 126, 37, 73, 39, 242, 115, 34, 233, 49, 62, 4, 137, 45, 158, 137, 1, 235, 28, 250, 20, 241, 206, 9, 244]",5ef0c931cace092dd8a8dd64,5c7dc31ade6f79001849c3a3,5ef0d53ef2d2bf65ffe0ae88,True,,652.7688791975379,f,,f,Q_in_O_vs,1.0,,,,,,,,4.0,0.0,"[-0.16666666666666602, -0.33333333333333304]","[[0.16666666666666602, -0.16666666666666602], [-0.33333333333333304, -0.16666666666666602], [0.16666666666666602, 0.16666666666666602], [-0.16666666666666602, -0.16666666666666602]]",399.1361209191382,
,html-keyboard-response,93,453451,0.0-3.0-1.0-1.6,f078aa2862041786868ef9f2ad23336df49386eb98fe8259951830bdf7c3dbfd,5c7dc31ade6f79001849c3a3,"[119, 33, 21, 251, 69, 243, 53, 91, 126, 37, 73, 39, 242, 115, 34, 233, 49, 62, 4, 137, 45, 158, 137, 1, 235, 28, 250, 20, 241, 206, 9, 244]",5ef0c931cace092dd8a8dd64,5c7dc31ade6f79001849c3a3,5ef0d53ef2d2bf65ffe0ae88,True,,,,,,,,,"<div style=""width:150px;height:56px;font-size:30px;text-align:center;"">correct!</div>",,,,,,,,,,,
,p5vs_yn,94,455079,0.0-3.0-1.0-0.7,f078aa2862041786868ef9f2ad23336df49386eb98fe8259951830bdf7c3dbfd,5c7dc31ade6f79001849c3a3,"[119, 33, 21, 251, 69, 243, 53, 91, 126, 37, 73, 39, 242, 115, 34, 233, 49, 62, 4, 137, 45, 158, 137, 1, 235, 28, 250, 20, 241, 206, 9, 244]",5ef0c931cace092dd8a8dd64,5c7dc31ade6f79001849c3a3,5ef0d53ef2d2bf65ffe0ae88,True,,644.546857336536,j,,j,Q_in_O_vs,1.0,,,,,,,,2.0,1.0,"[0.099999999999999, 0.30000000000000004]","[[0.099999999999999, -0.099999999999999], [-0.30000000000000004, -0.30000000000000004]]",466.9931430835277,
,html-keyboard-response,95,456079,0.0-3.0-1.0-1.7,f078aa2862041786868ef9f2ad23336df49386eb98fe8259951830bdf7c3dbfd,5c7dc31ade6f79001849c3a3,"[119, 33, 21, 251, 69, 243, 53, 91, 126, 37, 73, 39, 242, 115, 34, 233, 49, 62, 4, 137, 45, 158, 137, 1, 235, 28, 250, 20, 241, 206, 9, 244]",5ef0c931cace092dd8a8dd64,5c7dc31ade6f79001849c3a3,5ef0d53ef2d2bf65ffe0ae88,True,,,,,,,,,"<div style=""width:150px;height:56px;font-size:30px;text-align:center;"">correct!</div>",,,,,,,,,,,
,p5vs_yn,96,457296,0.0-3.0-1.0-0.8,f078aa2862041786868ef9f2ad23336df49386eb98fe8259951830bdf7c3dbfd,5c7dc31ade6f79001849c3a3,"[119, 33, 21, 251, 69, 243, 53, 91, 126, 37, 73, 39, 242, 115, 34, 233, 49, 62, 4, 137, 45, 158, 137, 1, 235, 28, 250, 20, 241, 206, 9, 244]",5ef0c931cace092dd8a8dd64,5c7dc31ade6f79001849c3a3,5ef0d53ef2d2bf65ffe0ae88,True,,609.8648922052234,j,,j,Q_in_O_vs,1.0,,,,,,,,4.0,1.0,"[-0.33333333333333304, 0.16666666666666602]","[[0.16666666666666602, -0.16666666666666602], [-0.16666666666666602, 0.16666666666666602], [0.33333333333333304, -0.33333333333333304], [-0.16666666666666602, 0.33333333333333304]]",100.15510790981352,
,html-keyboard-response,97,458298,0.0-3.0-1.0-1.8,f078aa2862041786868ef9f2ad23336df49386eb98fe8259951830bdf7c3dbfd,5c7dc31ade6f79001849c3a3,"[119, 33, 21, 251, 69, 243, 53, 91, 126, 37, 73, 39, 242, 115, 34, 233, 49, 62, 4, 137, 45, 158, 137, 1, 235, 28, 250, 20, 241, 206, 9, 244]",5ef0c931cace092dd8a8dd64,5c7dc31ade6f79001849c3a3,5ef0d53ef2d2bf65ffe0ae88,True,,,,,,,,,"<div style=""width:150px;height:56px;font-size:30px;text-align:center;"">correct!</div>",,,,,,,,,,,
,p5vs_yn,98,459549,0.0-3.0-1.0-0.9,f078aa2862041786868ef9f2ad23336df49386eb98fe8259951830bdf7c3dbfd,5c7dc31ade6f79001849c3a3,"[119, 33, 21, 251, 69, 243, 53, 91, 126, 37, 73, 39, 242, 115, 34, 233, 49, 62, 4, 137, 45, 158, 137, 1, 235, 28, 250, 20, 241, 206, 9, 244]",5ef0c931cace092dd8a8dd64,5c7dc31ade6f79001849c3a3,5ef0d53ef2d2bf65ffe0ae88,True,,464.68193095643073,j,,j,Q_in_O_vs,1.0,,,,,,,,1.0,1.0,"[0.30000000000000004, 0.099999999999999]","[[0.30000000000000004, 0.30000000000000004]]",279.3230692623183,
,html-keyboard-response,99,460553,0.0-3.0-1.0-1.9,f078aa2862041786868ef9f2ad23336df49386eb98fe8259951830bdf7c3dbfd,5c7dc31ade6f79001849c3a3,"[119, 33, 21, 251, 69, 243, 53, 91, 126, 37, 73, 39, 242, 115, 34, 233, 49, 62, 4, 137, 45, 158, 137, 1, 235, 28, 250, 20, 241, 206, 9, 244]",5ef0c931cace092dd8a8dd64,5c7dc31ade6f79001849c3a3,5ef0d53ef2d2bf65ffe0ae88,True,,,,,,,,,"<div style=""width:150px;height:56px;font-size:30px;text-align:center;"">correct!</div>",,,,,,,,,,,
,p5vs_yn,100,461917,0.0-3.0-1.0-0.10,f078aa2862041786868ef9f2ad23336df49386eb98fe8259951830bdf7c3dbfd,5c7dc31ade6f79001849c3a3,"[119, 33, 21, 251, 69, 243, 53, 91, 126, 37, 73, 39, 242, 115, 34, 233, 49, 62, 4, 137, 45, 158, 137, 1, 235, 28, 250, 20, 241, 206, 9, 244]",5ef0c931cace092dd8a8dd64,5c7dc31ade6f79001849c3a3,5ef0d53ef2d2bf65ffe0ae88,True,,618.2097626151517,f,,f,Q_in_O_vs,1.0,,,,,,,,2.0,0.0,"[0.099999999999999, -0.099999999999999]","[[-0.099999999999999, -0.099999999999999], [0.30000000000000004, 0.30000000000000004]]",241.11523700412363,
,html-keyboard-response,101,462920,0.0-3.0-1.0-1.10,f078aa2862041786868ef9f2ad23336df49386eb98fe8259951830bdf7c3dbfd,5c7dc31ade6f79001849c3a3,"[119, 33, 21, 251, 69, 243, 53, 91, 126, 37, 73, 39, 242, 115, 34, 233, 49, 62, 4, 137, 45, 158, 137, 1, 235, 28, 250, 20, 241, 206, 9, 244]",5ef0c931cace092dd8a8dd64,5c7dc31ade6f79001849c3a3,5ef0d53ef2d2bf65ffe0ae88,True,,,,,,,,,"<div style=""width:150px;height:56px;font-size:30px;text-align:center;"">correct!</div>",,,,,,,,,,,
,p5vs_yn,102,464686,0.0-3.0-1.0-0.11,f078aa2862041786868ef9f2ad23336df49386eb98fe8259951830bdf7c3dbfd,5c7dc31ade6f79001849c3a3,"[119, 33, 21, 251, 69, 243, 53, 91, 126, 37, 73, 39, 242, 115, 34, 233, 49, 62, 4, 137, 45, 158, 137, 1, 235, 28, 250, 20, 241, 206, 9, 244]",5ef0c931cace092dd8a8dd64,5c7dc31ade6f79001849c3a3,5ef0d53ef2d2bf65ffe0ae88,True,,967.8295033518225,f,,f,Q_in_O_vs,1.0,,,,,,,,8.0,0.0,"[0, 0.33333333333333304]","[[-0.16666666666666602, -0.33333333333333304], [0.33333333333333304, -0.33333333333333304], [0, -0.16666666666666602], [0.16666666666666602, 0.33333333333333304], [-0.33333333333333304, 0], [0.33333333333333304, 0], [-0.33333333333333304, 0.33333333333333304], [0, -0.33333333333333304]]",282.930496847257,
,html-keyboard-response,103,465689,0.0-3.0-1.0-1.11,f078aa2862041786868ef9f2ad23336df49386eb98fe8259951830bdf7c3dbfd,5c7dc31ade6f79001849c3a3,"[119, 33, 21, 251, 69, 243, 53, 91, 126, 37, 73, 39, 242, 115, 34, 233, 49, 62, 4, 137, 45, 158, 137, 1, 235, 28, 250, 20, 241, 206, 9, 244]",5ef0c931cace092dd8a8dd64,5c7dc31ade6f79001849c3a3,5ef0d53ef2d2bf65ffe0ae88,True,,,,,,,,,"<div style=""width:150px;height:56px;font-size:30px;text-align:center;"">correct!</div>",,,,,,,,,,,
,p5vs_yn,104,467304,0.0-3.0-1.0-0.12,f078aa2862041786868ef9f2ad23336df49386eb98fe8259951830bdf7c3dbfd,5c7dc31ade6f79001849c3a3,"[119, 33, 21, 251, 69, 243, 53, 91, 126, 37, 73, 39, 242, 115, 34, 233, 49, 62, 4, 137, 45, 158, 137, 1, 235, 28, 250, 20, 241, 206, 9, 244]",5ef0c931cace092dd8a8dd64,5c7dc31ade6f79001849c3a3,5ef0d53ef2d2bf65ffe0ae88,True,,640.9248458221555,j,,j,Q_in_O_vs,1.0,,,,,,,,8.0,1.0,"[0.33333333333333304, -0.16666666666666602]","[[0.16666666666666602, 0.16666666666666602], [0.33333333333333304, 0.16666666666666602], [-0.33333333333333304, 0.16666666666666602], [-0.16666666666666602, 0], [0, -0.16666666666666602], [0.16666666666666602, -0.33333333333333304], [0, 0], [0.33333333333333304, 0.33333333333333304]]",460.4151542298496,
,html-keyboard-response,105,468306,0.0-3.0-1.0-1.12,f078aa2862041786868ef9f2ad23336df49386eb98fe8259951830bdf7c3dbfd,5c7dc31ade6f79001849c3a3,"[119, 33, 21, 251, 69, 243, 53, 91, 126, 37, 73, 39, 242, 115, 34, 233, 49, 62, 4, 137, 45, 158, 137, 1, 235, 28, 250, 20, 241, 206, 9, 244]",5ef0c931cace092dd8a8dd64,5c7dc31ade6f79001849c3a3,5ef0d53ef2d2bf65ffe0ae88,True,,,,,,,,,"<div style=""width:150px;height:56px;font-size:30px;text-align:center;"">correct!</div>",,,,,,,,,,,
,p5vs_yn,106,469561,0.0-3.0-1.0-0.13,f078aa2862041786868ef9f2ad23336df49386eb98fe8259951830bdf7c3dbfd,5c7dc31ade6f79001849c3a3,"[119, 33, 21, 251, 69, 243, 53, 91, 126, 37, 73, 39, 242, 115, 34, 233, 49, 62, 4, 137, 45, 158, 137, 1, 235, 28, 250, 20, 241, 206, 9, 244]",5ef0c931cace092dd8a8dd64,5c7dc31ade6f79001849c3a3,5ef0d53ef2d2bf65ffe0ae88,True,,677.8620909899473,f,,f,Q_in_O_vs,1.0,,,,,,,,1.0,0.0,"[-0.099999999999999, -0.099999999999999]","[[-0.30000000000000004, -0.099999999999999]]",59.417909011244774,
,html-keyboard-response,107,470566,0.0-3.0-1.0-1.13,f078aa2862041786868ef9f2ad23336df49386eb98fe8259951830bdf7c3dbfd,5c7dc31ade6f79001849c3a3,"[119, 33, 21, 251, 69, 243, 53, 91, 126, 37, 73, 39, 242, 115, 34, 233, 49, 62, 4, 137, 45, 158, 137, 1, 235, 28, 250, 20, 241, 206, 9, 244]",5ef0c931cace092dd8a8dd64,5c7dc31ade6f79001849c3a3,5ef0d53ef2d2bf65ffe0ae88,True,,,,,,,,,"<div style=""width:150px;height:56px;font-size:30px;text-align:center;"">correct!</div>",,,,,,,,,,,
,p5vs_yn,108,472225,0.0-3.0-1.0-0.14,f078aa2862041786868ef9f2ad23336df49386eb98fe8259951830bdf7c3dbfd,5c7dc31ade6f79001849c3a3,"[119, 33, 21, 251, 69, 243, 53, 91, 126, 37, 73, 39, 242, 115, 34, 233, 49, 62, 4, 137, 45, 158, 137, 1, 235, 28, 250, 20, 241, 206, 9, 244]",5ef0c931cace092dd8a8dd64,5c7dc31ade6f79001849c3a3,5ef0d53ef2d2bf65ffe0ae88,True,,791.7518430622295,j,,j,Q_in_O_vs,1.0,,,,,,,,2.0,1.0,"[-0.099999999999999, 0.30000000000000004]","[[0.099999999999999, -0.099999999999999], [0.30000000000000004, 0.099999999999999]]",360.69815687369555,
,html-keyboard-response,109,473227,0.0-3.0-1.0-1.14,f078aa2862041786868ef9f2ad23336df49386eb98fe8259951830bdf7c3dbfd,5c7dc31ade6f79001849c3a3,"[119, 33, 21, 251, 69, 243, 53, 91, 126, 37, 73, 39, 242, 115, 34, 233, 49, 62, 4, 137, 45, 158, 137, 1, 235, 28, 250, 20, 241, 206, 9, 244]",5ef0c931cace092dd8a8dd64,5c7dc31ade6f79001849c3a3,5ef0d53ef2d2bf65ffe0ae88,True,,,,,,,,,"<div style=""width:150px;height:56px;font-size:30px;text-align:center;"">correct!</div>",,,,,,,,,,,
,p5vs_yn,110,474711,0.0-3.0-1.0-0.15,f078aa2862041786868ef9f2ad23336df49386eb98fe8259951830bdf7c3dbfd,5c7dc31ade6f79001849c3a3,"[119, 33, 21, 251, 69, 243, 53, 91, 126, 37, 73, 39, 242, 115, 34, 233, 49, 62, 4, 137, 45, 158, 137, 1, 235, 28, 250, 20, 241, 206, 9, 244]",5ef0c931cace092dd8a8dd64,5c7dc31ade6f79001849c3a3,5ef0d53ef2d2bf65ffe0ae88,True,,606.7845184588805,f,,f,Q_in_O_vs,1.0,,,,,,,,4.0,0.0,"[0.16666666666666602, -0.33333333333333304]","[[0.16666666666666602, 0], [-0.33333333333333304, 0.33333333333333304], [-0.16666666666666602, 0], [0, -0.16666666666666602]]",371.14548159297556,
,html-keyboard-response,111,475717,0.0-3.0-1.0-1.15,f078aa2862041786868ef9f2ad23336df49386eb98fe8259951830bdf7c3dbfd,5c7dc31ade6f79001849c3a3,"[119, 33, 21, 251, 69, 243, 53, 91, 126, 37, 73, 39, 242, 115, 34, 233, 49, 62, 4, 137, 45, 158, 137, 1, 235, 28, 250, 20, 241, 206, 9, 244]",5ef0c931cace092dd8a8dd64,5c7dc31ade6f79001849c3a3,5ef0d53ef2d2bf65ffe0ae88,True,,,,,,,,,"<div style=""width:150px;height:56px;font-size:30px;text-align:center;"">correct!</div>",,,,,,,,,,,
,p5Text,112,480638,0.0-3.0-2.0,f078aa2862041786868ef9f2ad23336df49386eb98fe8259951830bdf7c3dbfd,5c7dc31ade6f79001849c3a3,"[119, 33, 21, 251, 69, 243, 53, 91, 126, 37, 73, 39, 242, 115, 34, 233, 49, 62, 4, 137, 45, 158, 137, 1, 235, 28, 250, 20, 241, 206, 9, 244]",5ef0c931cace092dd8a8dd64,5c7dc31ade6f79001849c3a3,5ef0d53ef2d2bf65ffe0ae88,True,,,,,,,,,,,,,,,,,,,,
,p5Text,113,483290,0.0-3.0-3.0,f078aa2862041786868ef9f2ad23336df49386eb98fe8259951830bdf7c3dbfd,5c7dc31ade6f79001849c3a3,"[119, 33, 21, 251, 69, 243, 53, 91, 126, 37, 73, 39, 242, 115, 34, 233, 49, 62, 4, 137, 45, 158, 137, 1, 235, 28, 250, 20, 241, 206, 9, 244]",5ef0c931cace092dd8a8dd64,5c7dc31ade6f79001849c3a3,5ef0d53ef2d2bf65ffe0ae88,True,,,,,,,,,,,,,,,,,,,,
,p5vs_yn,114,484652,0.0-3.0-4.0-0.0,f078aa2862041786868ef9f2ad23336df49386eb98fe8259951830bdf7c3dbfd,5c7dc31ade6f79001849c3a3,"[119, 33, 21, 251, 69, 243, 53, 91, 126, 37, 73, 39, 242, 115, 34, 233, 49, 62, 4, 137, 45, 158, 137, 1, 235, 28, 250, 20, 241, 206, 9, 244]",5ef0c931cace092dd8a8dd64,5c7dc31ade6f79001849c3a3,5ef0d53ef2d2bf65ffe0ae88,True,,671.4627617038786,j,,j,Q_in_O_vs,1.0,,,,,,,,8.0,1.0,"[-0.16666666666666602, 0.33333333333333304]","[[0.16666666666666602, -0.33333333333333304], [0.16666666666666602, 0.16666666666666602], [-0.33333333333333304, 0.16666666666666602], [0, 0.33333333333333304], [-0.33333333333333304, -0.33333333333333304], [0, 0], [0.16666666666666602, 0], [-0.33333333333333304, 0.33333333333333304]]",189.1272380016744,
,html-keyboard-response,115,485656,0.0-3.0-4.0-1.0,f078aa2862041786868ef9f2ad23336df49386eb98fe8259951830bdf7c3dbfd,5c7dc31ade6f79001849c3a3,"[119, 33, 21, 251, 69, 243, 53, 91, 126, 37, 73, 39, 242, 115, 34, 233, 49, 62, 4, 137, 45, 158, 137, 1, 235, 28, 250, 20, 241, 206, 9, 244]",5ef0c931cace092dd8a8dd64,5c7dc31ade6f79001849c3a3,5ef0d53ef2d2bf65ffe0ae88,True,,,,,,,,,"<div style=""width:150px;height:56px;font-size:30px;text-align:center;"">correct!</div>",,,,,,,,,,,
,p5vs_yn,116,486920,0.0-3.0-4.0-0.1,f078aa2862041786868ef9f2ad23336df49386eb98fe8259951830bdf7c3dbfd,5c7dc31ade6f79001849c3a3,"[119, 33, 21, 251, 69, 243, 53, 91, 126, 37, 73, 39, 242, 115, 34, 233, 49, 62, 4, 137, 45, 158, 137, 1, 235, 28, 250, 20, 241, 206, 9, 244]",5ef0c931cace092dd8a8dd64,5c7dc31ade6f79001849c3a3,5ef0d53ef2d2bf65ffe0ae88,True,,533.8418367318809,f,,f,Q_in_O_vs,1.0,,,,,,,,2.0,0.0,"[0.099999999999999, -0.30000000000000004]","[[0.30000000000000004, 0.30000000000000004], [0.30000000000000004, -0.099999999999999]]",221.2731633335352,
,html-keyboard-response,117,487925,0.0-3.0-4.0-1.1,f078aa2862041786868ef9f2ad23336df49386eb98fe8259951830bdf7c3dbfd,5c7dc31ade6f79001849c3a3,"[119, 33, 21, 251, 69, 243, 53, 91, 126, 37, 73, 39, 242, 115, 34, 233, 49, 62, 4, 137, 45, 158, 137, 1, 235, 28, 250, 20, 241, 206, 9, 244]",5ef0c931cace092dd8a8dd64,5c7dc31ade6f79001849c3a3,5ef0d53ef2d2bf65ffe0ae88,True,,,,,,,,,"<div style=""width:150px;height:56px;font-size:30px;text-align:center;"">correct!</div>",,,,,,,,,,,
,p5vs_yn,118,489458,0.0-3.0-4.0-0.2,f078aa2862041786868ef9f2ad23336df49386eb98fe8259951830bdf7c3dbfd,5c7dc31ade6f79001849c3a3,"[119, 33, 21, 251, 69, 243, 53, 91, 126, 37, 73, 39, 242, 115, 34, 233, 49, 62, 4, 137, 45, 158, 137, 1, 235, 28, 250, 20, 241, 206, 9, 244]",5ef0c931cace092dd8a8dd64,5c7dc31ade6f79001849c3a3,5ef0d53ef2d2bf65ffe0ae88,True,,599.5654372964054,j,,j,Q_in_O_vs,1.0,,,,,,,,4.0,1.0,"[0.33333333333333304, -0.33333333333333304]","[[0.33333333333333304, 0], [0, 0.33333333333333304], [0.33333333333333304, 0.16666666666666602], [-0.33333333333333304, 0.33333333333333304]]",430.58956251479685,
,html-keyboard-response,119,490462,0.0-3.0-4.0-1.2,f078aa2862041786868ef9f2ad23336df49386eb98fe8259951830bdf7c3dbfd,5c7dc31ade6f79001849c3a3,"[119, 33, 21, 251, 69, 243, 53, 91, 126, 37, 73, 39, 242, 115, 34, 233, 49, 62, 4, 137, 45, 158, 137, 1, 235, 28, 250, 20, 241, 206, 9, 244]",5ef0c931cace092dd8a8dd64,5c7dc31ade6f79001849c3a3,5ef0d53ef2d2bf65ffe0ae88,True,,,,,,,,,"<div style=""width:150px;height:56px;font-size:30px;text-align:center;"">correct!</div>",,,,,,,,,,,
,p5vs_yn,120,491641,0.0-3.0-4.0-0.3,f078aa2862041786868ef9f2ad23336df49386eb98fe8259951830bdf7c3dbfd,5c7dc31ade6f79001849c3a3,"[119, 33, 21, 251, 69, 243, 53, 91, 126, 37, 73, 39, 242, 115, 34, 233, 49, 62, 4, 137, 45, 158, 137, 1, 235, 28, 250, 20, 241, 206, 9, 244]",5ef0c931cace092dd8a8dd64,5c7dc31ade6f79001849c3a3,5ef0d53ef2d2bf65ffe0ae88,True,,554.5075979316607,f,,j,Q_in_O_vs,0.0,,,,,,,,2.0,1.0,"[-0.30000000000000004, 0.099999999999999]","[[0.30000000000000004, 0.30000000000000004], [0.099999999999999, -0.30000000000000004]]",121.39240221586078,
,html-keyboard-response,121,493144,0.0-3.0-4.0-1.3,f078aa2862041786868ef9f2ad23336df49386eb98fe8259951830bdf7c3dbfd,5c7dc31ade6f79001849c3a3,"[119, 33, 21, 251, 69, 243, 53, 91, 126, 37, 73, 39, 242, 115, 34, 233, 49, 62, 4, 137, 45, 158, 137, 1, 235, 28, 250, 20, 241, 206, 9, 244]",5ef0c931cace092dd8a8dd64,5c7dc31ade6f79001849c3a3,5ef0d53ef2d2bf65ffe0ae88,True,,,,,,,,,"<div style=""width:150px;height:56px;border:0px;font-size:30px;text-align:center"">wrong.</div>",,,,,,,,,,,
,p5vs_yn,122,494893,0.0-3.0-4.0-0.4,f078aa2862041786868ef9f2ad23336df49386eb98fe8259951830bdf7c3dbfd,5c7dc31ade6f79001849c3a3,"[119, 33, 21, 251, 69, 243, 53, 91, 126, 37, 73, 39, 242, 115, 34, 233, 49, 62, 4, 137, 45, 158, 137, 1, 235, 28, 250, 20, 241, 206, 9, 244]",5ef0c931cace092dd8a8dd64,5c7dc31ade6f79001849c3a3,5ef0d53ef2d2bf65ffe0ae88,True,,846.3684055022895,f,,f,Q_in_O_vs,1.0,,,,,,,,8.0,0.0,"[0.16666666666666602, -0.16666666666666602]","[[0.16666666666666602, 0.16666666666666602], [0.16666666666666602, -0.33333333333333304], [0, 0.33333333333333304], [0, -0.16666666666666602], [-0.16666666666666602, -0.16666666666666602], [-0.16666666666666602, 0.16666666666666602], [0, 0], [0, -0.33333333333333304]]",397.02659426257014,
,html-keyboard-response,123,495898,0.0-3.0-4.0-1.4,f078aa2862041786868ef9f2ad23336df49386eb98fe8259951830bdf7c3dbfd,5c7dc31ade6f79001849c3a3,"[119, 33, 21, 251, 69, 243, 53, 91, 126, 37, 73, 39, 242, 115, 34, 233, 49, 62, 4, 137, 45, 158, 137, 1, 235, 28, 250, 20, 241, 206, 9, 244]",5ef0c931cace092dd8a8dd64,5c7dc31ade6f79001849c3a3,5ef0d53ef2d2bf65ffe0ae88,True,,,,,,,,,"<div style=""width:150px;height:56px;font-size:30px;text-align:center;"">correct!</div>",,,,,,,,,,,
,p5vs_yn,124,497379,0.0-3.0-4.0-0.5,f078aa2862041786868ef9f2ad23336df49386eb98fe8259951830bdf7c3dbfd,5c7dc31ade6f79001849c3a3,"[119, 33, 21, 251, 69, 243, 53, 91, 126, 37, 73, 39, 242, 115, 34, 233, 49, 62, 4, 137, 45, 158, 137, 1, 235, 28, 250, 20, 241, 206, 9, 244]",5ef0c931cace092dd8a8dd64,5c7dc31ade6f79001849c3a3,5ef0d53ef2d2bf65ffe0ae88,True,,756.8603397812694,j,,j,Q_in_O_vs,1.0,,,,,,,,1.0,1.0,"[-0.099999999999999, -0.099999999999999]","[[0.30000000000000004, -0.099999999999999]]",208.0096600111574,
,html-keyboard-response,125,498385,0.0-3.0-4.0-1.5,f078aa2862041786868ef9f2ad23336df49386eb98fe8259951830bdf7c3dbfd,5c7dc31ade6f79001849c3a3,"[119, 33, 21, 251, 69, 243, 53, 91, 126, 37, 73, 39, 242, 115, 34, 233, 49, 62, 4, 137, 45, 158, 137, 1, 235, 28, 250, 20, 241, 206, 9, 244]",5ef0c931cace092dd8a8dd64,5c7dc31ade6f79001849c3a3,5ef0d53ef2d2bf65ffe0ae88,True,,,,,,,,,"<div style=""width:150px;height:56px;font-size:30px;text-align:center;"">correct!</div>",,,,,,,,,,,
,p5vs_yn,126,500114,0.0-3.0-4.0-0.6,f078aa2862041786868ef9f2ad23336df49386eb98fe8259951830bdf7c3dbfd,5c7dc31ade6f79001849c3a3,"[119, 33, 21, 251, 69, 243, 53, 91, 126, 37, 73, 39, 242, 115, 34, 233, 49, 62, 4, 137, 45, 158, 137, 1, 235, 28, 250, 20, 241, 206, 9, 244]",5ef0c931cace092dd8a8dd64,5c7dc31ade6f79001849c3a3,5ef0d53ef2d2bf65ffe0ae88,True,,757.6898074476048,f,,f,Q_in_O_vs,1.0,,,,,,,,4.0,0.0,"[0.16666666666666602, -0.16666666666666602]","[[-0.33333333333333304, -0.16666666666666602], [-0.16666666666666602, 0.16666666666666602], [0, -0.16666666666666602], [0, 0.33333333333333304]]",454.1601921664551,
,html-keyboard-response,127,501120,0.0-3.0-4.0-1.6,f078aa2862041786868ef9f2ad23336df49386eb98fe8259951830bdf7c3dbfd,5c7dc31ade6f79001849c3a3,"[119, 33, 21, 251, 69, 243, 53, 91, 126, 37, 73, 39, 242, 115, 34, 233, 49, 62, 4, 137, 45, 158, 137, 1, 235, 28, 250, 20, 241, 206, 9, 244]",5ef0c931cace092dd8a8dd64,5c7dc31ade6f79001849c3a3,5ef0d53ef2d2bf65ffe0ae88,True,,,,,,,,,"<div style=""width:150px;height:56px;font-size:30px;text-align:center;"">correct!</div>",,,,,,,,,,,
,p5vs_yn,128,502634,0.0-3.0-4.0-0.7,f078aa2862041786868ef9f2ad23336df49386eb98fe8259951830bdf7c3dbfd,5c7dc31ade6f79001849c3a3,"[119, 33, 21, 251, 69, 243, 53, 91, 126, 37, 73, 39, 242, 115, 34, 233, 49, 62, 4, 137, 45, 158, 137, 1, 235, 28, 250, 20, 241, 206, 9, 244]",5ef0c931cace092dd8a8dd64,5c7dc31ade6f79001849c3a3,5ef0d53ef2d2bf65ffe0ae88,True,,582.7736889477819,f,,f,Q_in_O_vs,1.0,,,,,,,,1.0,0.0,"[-0.30000000000000004, 0.30000000000000004]","[[-0.099999999999999, -0.099999999999999]]",427.1263109985739,
,html-keyboard-response,129,503639,0.0-3.0-4.0-1.7,f078aa2862041786868ef9f2ad23336df49386eb98fe8259951830bdf7c3dbfd,5c7dc31ade6f79001849c3a3,"[119, 33, 21, 251, 69, 243, 53, 91, 126, 37, 73, 39, 242, 115, 34, 233, 49, 62, 4, 137, 45, 158, 137, 1, 235, 28, 250, 20, 241, 206, 9, 244]",5ef0c931cace092dd8a8dd64,5c7dc31ade6f79001849c3a3,5ef0d53ef2d2bf65ffe0ae88,True,,,,,,,,,"<div style=""width:150px;height:56px;font-size:30px;text-align:center;"">correct!</div>",,,,,,,,,,,
,p5vs_yn,130,505052,0.0-3.0-4.0-0.8,f078aa2862041786868ef9f2ad23336df49386eb98fe8259951830bdf7c3dbfd,5c7dc31ade6f79001849c3a3,"[119, 33, 21, 251, 69, 243, 53, 91, 126, 37, 73, 39, 242, 115, 34, 233, 49, 62, 4, 137, 45, 158, 137, 1, 235, 28, 250, 20, 241, 206, 9, 244]",5ef0c931cace092dd8a8dd64,5c7dc31ade6f79001849c3a3,5ef0d53ef2d2bf65ffe0ae88,True,,517.1570717357099,j,,j,Q_in_O_vs,1.0,,,,,,,,2.0,1.0,"[-0.30000000000000004, 0.099999999999999]","[[0.099999999999999, 0.099999999999999], [-0.30000000000000004, 0.30000000000000004]]",379.3379282578826,
,html-keyboard-response,131,506053,0.0-3.0-4.0-1.8,f078aa2862041786868ef9f2ad23336df49386eb98fe8259951830bdf7c3dbfd,5c7dc31ade6f79001849c3a3,"[119, 33, 21, 251, 69, 243, 53, 91, 126, 37, 73, 39, 242, 115, 34, 233, 49, 62, 4, 137, 45, 158, 137, 1, 235, 28, 250, 20, 241, 206, 9, 244]",5ef0c931cace092dd8a8dd64,5c7dc31ade6f79001849c3a3,5ef0d53ef2d2bf65ffe0ae88,True,,,,,,,,,"<div style=""width:150px;height:56px;font-size:30px;text-align:center;"">correct!</div>",,,,,,,,,,,
,p5vs_yn,132,507505,0.0-3.0-4.0-0.9,f078aa2862041786868ef9f2ad23336df49386eb98fe8259951830bdf7c3dbfd,5c7dc31ade6f79001849c3a3,"[119, 33, 21, 251, 69, 243, 53, 91, 126, 37, 73, 39, 242, 115, 34, 233, 49, 62, 4, 137, 45, 158, 137, 1, 235, 28, 250, 20, 241, 206, 9, 244]",5ef0c931cace092dd8a8dd64,5c7dc31ade6f79001849c3a3,5ef0d53ef2d2bf65ffe0ae88,True,,758.3249745657668,f,,f,Q_in_O_vs,1.0,,,,,,,,4.0,0.0,"[-0.33333333333333304, -0.16666666666666602]","[[-0.33333333333333304, -0.33333333333333304], [0, 0], [0.33333333333333304, -0.16666666666666602], [0.33333333333333304, -0.33333333333333304]]",190.43502549175173,
,html-keyboard-response,133,508509,0.0-3.0-4.0-1.9,f078aa2862041786868ef9f2ad23336df49386eb98fe8259951830bdf7c3dbfd,5c7dc31ade6f79001849c3a3,"[119, 33, 21, 251, 69, 243, 53, 91, 126, 37, 73, 39, 242, 115, 34, 233, 49, 62, 4, 137, 45, 158, 137, 1, 235, 28, 250, 20, 241, 206, 9, 244]",5ef0c931cace092dd8a8dd64,5c7dc31ade6f79001849c3a3,5ef0d53ef2d2bf65ffe0ae88,True,,,,,,,,,"<div style=""width:150px;height:56px;font-size:30px;text-align:center;"">correct!</div>",,,,,,,,,,,
,p5vs_yn,134,509756,0.0-3.0-4.0-0.10,f078aa2862041786868ef9f2ad23336df49386eb98fe8259951830bdf7c3dbfd,5c7dc31ade6f79001849c3a3,"[119, 33, 21, 251, 69, 243, 53, 91, 126, 37, 73, 39, 242, 115, 34, 233, 49, 62, 4, 137, 45, 158, 137, 1, 235, 28, 250, 20, 241, 206, 9, 244]",5ef0c931cace092dd8a8dd64,5c7dc31ade6f79001849c3a3,5ef0d53ef2d2bf65ffe0ae88,True,,626.347417011857,f,,f,Q_in_O_vs,1.0,,,,,,,,1.0,0.0,"[-0.30000000000000004, 0.30000000000000004]","[[0.099999999999999, -0.30000000000000004]]",113.31258295103908,
,html-keyboard-response,135,510761,0.0-3.0-4.0-1.10,f078aa2862041786868ef9f2ad23336df49386eb98fe8259951830bdf7c3dbfd,5c7dc31ade6f79001849c3a3,"[119, 33, 21, 251, 69, 243, 53, 91, 126, 37, 73, 39, 242, 115, 34, 233, 49, 62, 4, 137, 45, 158, 137, 1, 235, 28, 250, 20, 241, 206, 9, 244]",5ef0c931cace092dd8a8dd64,5c7dc31ade6f79001849c3a3,5ef0d53ef2d2bf65ffe0ae88,True,,,,,,,,,"<div style=""width:150px;height:56px;font-size:30px;text-align:center;"">correct!</div>",,,,,,,,,,,
,p5vs_yn,136,512475,0.0-3.0-4.0-0.11,f078aa2862041786868ef9f2ad23336df49386eb98fe8259951830bdf7c3dbfd,5c7dc31ade6f79001849c3a3,"[119, 33, 21, 251, 69, 243, 53, 91, 126, 37, 73, 39, 242, 115, 34, 233, 49, 62, 4, 137, 45, 158, 137, 1, 235, 28, 250, 20, 241, 206, 9, 244]",5ef0c931cace092dd8a8dd64,5c7dc31ade6f79001849c3a3,5ef0d53ef2d2bf65ffe0ae88,True,,927.7223398676142,f,,f,Q_in_O_vs,1.0,,,,,,,,8.0,0.0,"[0, -0.16666666666666602]","[[-0.16666666666666602, 0.16666666666666602], [0.33333333333333304, 0.33333333333333304], [0, 0.16666666666666602], [-0.33333333333333304, -0.33333333333333304], [0, 0.33333333333333304], [0.33333333333333304, -0.16666666666666602], [0.33333333333333304, 0.16666666666666602], [-0.33333333333333304, -0.16666666666666602]]",274.6476602042094,
,html-keyboard-response,137,513477,0.0-3.0-4.0-1.11,f078aa2862041786868ef9f2ad23336df49386eb98fe8259951830bdf7c3dbfd,5c7dc31ade6f79001849c3a3,"[119, 33, 21, 251, 69, 243, 53, 91, 126, 37, 73, 39, 242, 115, 34, 233, 49, 62, 4, 137, 45, 158, 137, 1, 235, 28, 250, 20, 241, 206, 9, 244]",5ef0c931cace092dd8a8dd64,5c7dc31ade6f79001849c3a3,5ef0d53ef2d2bf65ffe0ae88,True,,,,,,,,,"<div style=""width:150px;height:56px;font-size:30px;text-align:center;"">correct!</div>",,,,,,,,,,,
,p5vs_yn,138,514709,0.0-3.0-4.0-0.12,f078aa2862041786868ef9f2ad23336df49386eb98fe8259951830bdf7c3dbfd,5c7dc31ade6f79001849c3a3,"[119, 33, 21, 251, 69, 243, 53, 91, 126, 37, 73, 39, 242, 115, 34, 233, 49, 62, 4, 137, 45, 158, 137, 1, 235, 28, 250, 20, 241, 206, 9, 244]",5ef0c931cace092dd8a8dd64,5c7dc31ade6f79001849c3a3,5ef0d53ef2d2bf65ffe0ae88,True,,659.0332399355248,f,,f,Q_in_O_vs,1.0,,,,,,,,2.0,0.0,"[-0.30000000000000004, -0.099999999999999]","[[0.099999999999999, -0.099999999999999], [0.099999999999999, -0.30000000000000004]]",61.1867600819096,
,html-keyboard-response,139,515712,0.0-3.0-4.0-1.12,f078aa2862041786868ef9f2ad23336df49386eb98fe8259951830bdf7c3dbfd,5c7dc31ade6f79001849c3a3,"[119, 33, 21, 251, 69, 243, 53, 91, 126, 37, 73, 39, 242, 115, 34, 233, 49, 62, 4, 137, 45, 158, 137, 1, 235, 28, 250, 20, 241, 206, 9, 244]",5ef0c931cace092dd8a8dd64,5c7dc31ade6f79001849c3a3,5ef0d53ef2d2bf65ffe0ae88,True,,,,,,,,,"<div style=""width:150px;height:56px;font-size:30px;text-align:center;"">correct!</div>",,,,,,,,,,,
,p5vs_yn,140,516977,0.0-3.0-4.0-0.13,f078aa2862041786868ef9f2ad23336df49386eb98fe8259951830bdf7c3dbfd,5c7dc31ade6f79001849c3a3,"[119, 33, 21, 251, 69, 243, 53, 91, 126, 37, 73, 39, 242, 115, 34, 233, 49, 62, 4, 137, 45, 158, 137, 1, 235, 28, 250, 20, 241, 206, 9, 244]",5ef0c931cace092dd8a8dd64,5c7dc31ade6f79001849c3a3,5ef0d53ef2d2bf65ffe0ae88,True,,601.755638839677,j,,j,Q_in_O_vs,1.0,,,,,,,,8.0,1.0,"[-0.16666666666666602, 0]","[[0.33333333333333304, -0.33333333333333304], [0.16666666666666602, 0], [0.33333333333333304, 0], [0.33333333333333304, 0.33333333333333304], [-0.33333333333333304, -0.33333333333333304], [-0.33333333333333304, -0.16666666666666602], [-0.16666666666666602, 0.33333333333333304], [0, 0]]",157.4093613307923,
,html-keyboard-response,141,517981,0.0-3.0-4.0-1.13,f078aa2862041786868ef9f2ad23336df49386eb98fe8259951830bdf7c3dbfd,5c7dc31ade6f79001849c3a3,"[119, 33, 21, 251, 69, 243, 53, 91, 126, 37, 73, 39, 242, 115, 34, 233, 49, 62, 4, 137, 45, 158, 137, 1, 235, 28, 250, 20, 241, 206, 9, 244]",5ef0c931cace092dd8a8dd64,5c7dc31ade6f79001849c3a3,5ef0d53ef2d2bf65ffe0ae88,True,,,,,,,,,"<div style=""width:150px;height:56px;font-size:30px;text-align:center;"">correct!</div>",,,,,,,,,,,
,p5vs_yn,142,519146,0.0-3.0-4.0-0.14,f078aa2862041786868ef9f2ad23336df49386eb98fe8259951830bdf7c3dbfd,5c7dc31ade6f79001849c3a3,"[119, 33, 21, 251, 69, 243, 53, 91, 126, 37, 73, 39, 242, 115, 34, 233, 49, 62, 4, 137, 45, 158, 137, 1, 235, 28, 250, 20, 241, 206, 9, 244]",5ef0c931cace092dd8a8dd64,5c7dc31ade6f79001849c3a3,5ef0d53ef2d2bf65ffe0ae88,True,,545.4207955626771,j,,j,Q_in_O_vs,1.0,,,,,,,,4.0,1.0,"[0.16666666666666602, 0.16666666666666602]","[[-0.33333333333333304, 0.16666666666666602], [0.33333333333333304, 0.33333333333333304], [-0.33333333333333304, 0], [0.16666666666666602, -0.16666666666666602]]",116.13920435775071,
,html-keyboard-response,143,520147,0.0-3.0-4.0-1.14,f078aa2862041786868ef9f2ad23336df49386eb98fe8259951830bdf7c3dbfd,5c7dc31ade6f79001849c3a3,"[119, 33, 21, 251, 69, 243, 53, 91, 126, 37, 73, 39, 242, 115, 34, 233, 49, 62, 4, 137, 45, 158, 137, 1, 235, 28, 250, 20, 241, 206, 9, 244]",5ef0c931cace092dd8a8dd64,5c7dc31ade6f79001849c3a3,5ef0d53ef2d2bf65ffe0ae88,True,,,,,,,,,"<div style=""width:150px;height:56px;font-size:30px;text-align:center;"">correct!</div>",,,,,,,,,,,
,p5vs_yn,144,521632,0.0-3.0-4.0-0.15,f078aa2862041786868ef9f2ad23336df49386eb98fe8259951830bdf7c3dbfd,5c7dc31ade6f79001849c3a3,"[119, 33, 21, 251, 69, 243, 53, 91, 126, 37, 73, 39, 242, 115, 34, 233, 49, 62, 4, 137, 45, 158, 137, 1, 235, 28, 250, 20, 241, 206, 9, 244]",5ef0c931cace092dd8a8dd64,5c7dc31ade6f79001849c3a3,5ef0d53ef2d2bf65ffe0ae88,True,,685.4129140265286,j,,j,Q_in_O_vs,1.0,,,,,,,,1.0,1.0,"[0.30000000000000004, -0.30000000000000004]","[[0.30000000000000004, 0.30000000000000004]]",287.07208577543497,
,html-keyboard-response,145,522637,0.0-3.0-4.0-1.15,f078aa2862041786868ef9f2ad23336df49386eb98fe8259951830bdf7c3dbfd,5c7dc31ade6f79001849c3a3,"[119, 33, 21, 251, 69, 243, 53, 91, 126, 37, 73, 39, 242, 115, 34, 233, 49, 62, 4, 137, 45, 158, 137, 1, 235, 28, 250, 20, 241, 206, 9, 244]",5ef0c931cace092dd8a8dd64,5c7dc31ade6f79001849c3a3,5ef0d53ef2d2bf65ffe0ae88,True,,,,,,,,,"<div style=""width:150px;height:56px;font-size:30px;text-align:center;"">correct!</div>",,,,,,,,,,,
,p5Text,146,529620,0.0-3.0-5.0,f078aa2862041786868ef9f2ad23336df49386eb98fe8259951830bdf7c3dbfd,5c7dc31ade6f79001849c3a3,"[119, 33, 21, 251, 69, 243, 53, 91, 126, 37, 73, 39, 242, 115, 34, 233, 49, 62, 4, 137, 45, 158, 137, 1, 235, 28, 250, 20, 241, 206, 9, 244]",5ef0c931cace092dd8a8dd64,5c7dc31ade6f79001849c3a3,5ef0d53ef2d2bf65ffe0ae88,True,,,,,,,,,,,,,,,,,,,,
,call-function,147,529620,0.0-3.0-6.0,f078aa2862041786868ef9f2ad23336df49386eb98fe8259951830bdf7c3dbfd,5c7dc31ade6f79001849c3a3,"[119, 33, 21, 251, 69, 243, 53, 91, 126, 37, 73, 39, 242, 115, 34, 233, 49, 62, 4, 137, 45, 158, 137, 1, 235, 28, 250, 20, 241, 206, 9, 244]",5ef0c931cace092dd8a8dd64,5c7dc31ade6f79001849c3a3,5ef0d53ef2d2bf65ffe0ae88,True,,,,,,,,,,,,,,,,,,,,
,p5Text,148,545645,0.0-4.0-0.0-0.0,f078aa2862041786868ef9f2ad23336df49386eb98fe8259951830bdf7c3dbfd,5c7dc31ade6f79001849c3a3,"[119, 33, 21, 251, 69, 243, 53, 91, 126, 37, 73, 39, 242, 115, 34, 233, 49, 62, 4, 137, 45, 158, 137, 1, 235, 28, 250, 20, 241, 206, 9, 244]",5ef0c931cace092dd8a8dd64,5c7dc31ade6f79001849c3a3,5ef0d53ef2d2bf65ffe0ae88,True,,,,,,,,,,,,,,,,,,,,
,p5vs_yn,149,547169,0.0-4.0-0.0-1.0-0.0,f078aa2862041786868ef9f2ad23336df49386eb98fe8259951830bdf7c3dbfd,5c7dc31ade6f79001849c3a3,"[119, 33, 21, 251, 69, 243, 53, 91, 126, 37, 73, 39, 242, 115, 34, 233, 49, 62, 4, 137, 45, 158, 137, 1, 235, 28, 250, 20, 241, 206, 9, 244]",5ef0c931cace092dd8a8dd64,5c7dc31ade6f79001849c3a3,5ef0d53ef2d2bf65ffe0ae88,True,,600.8345108712092,j,,j,practice_O_in_Q,1.0,,,,,,,,3.0,1.0,"[0.30000000000000004, -0.30000000000000004]","[[-0.099999999999999, 0.30000000000000004], [-0.099999999999999, 0.099999999999999], [0.099999999999999, -0.099999999999999]]",418.27048908453435,2.0
,html-keyboard-response,150,548172,0.0-4.0-0.0-1.0-1.0,f078aa2862041786868ef9f2ad23336df49386eb98fe8259951830bdf7c3dbfd,5c7dc31ade6f79001849c3a3,"[119, 33, 21, 251, 69, 243, 53, 91, 126, 37, 73, 39, 242, 115, 34, 233, 49, 62, 4, 137, 45, 158, 137, 1, 235, 28, 250, 20, 241, 206, 9, 244]",5ef0c931cace092dd8a8dd64,5c7dc31ade6f79001849c3a3,5ef0d53ef2d2bf65ffe0ae88,True,,,,,,,,,"<div style=""width:150px;height:56px;font-size:30px;text-align:center;"">correct!</div>",,,,,,,,,,,
,p5vs_yn,151,549837,0.0-4.0-0.0-1.0-0.1,f078aa2862041786868ef9f2ad23336df49386eb98fe8259951830bdf7c3dbfd,5c7dc31ade6f79001849c3a3,"[119, 33, 21, 251, 69, 243, 53, 91, 126, 37, 73, 39, 242, 115, 34, 233, 49, 62, 4, 137, 45, 158, 137, 1, 235, 28, 250, 20, 241, 206, 9, 244]",5ef0c931cace092dd8a8dd64,5c7dc31ade6f79001849c3a3,5ef0d53ef2d2bf65ffe0ae88,True,,724.6911411639303,f,,f,practice_O_in_Q,1.0,,,,,,,,3.0,0.0,"[-0.099999999999999, -0.30000000000000004]","[[0.30000000000000004, 0.30000000000000004], [0.30000000000000004, 0.099999999999999], [0.099999999999999, -0.30000000000000004]]",424.7288585174829,2.0
,html-keyboard-response,152,550842,0.0-4.0-0.0-1.0-1.1,f078aa2862041786868ef9f2ad23336df49386eb98fe8259951830bdf7c3dbfd,5c7dc31ade6f79001849c3a3,"[119, 33, 21, 251, 69, 243, 53, 91, 126, 37, 73, 39, 242, 115, 34, 233, 49, 62, 4, 137, 45, 158, 137, 1, 235, 28, 250, 20, 241, 206, 9, 244]",5ef0c931cace092dd8a8dd64,5c7dc31ade6f79001849c3a3,5ef0d53ef2d2bf65ffe0ae88,True,,,,,,,,,"<div style=""width:150px;height:56px;font-size:30px;text-align:center;"">correct!</div>",,,,,,,,,,,
,p5vs_yn,153,552406,0.0-4.0-0.0-1.0-0.2,f078aa2862041786868ef9f2ad23336df49386eb98fe8259951830bdf7c3dbfd,5c7dc31ade6f79001849c3a3,"[119, 33, 21, 251, 69, 243, 53, 91, 126, 37, 73, 39, 242, 115, 34, 233, 49, 62, 4, 137, 45, 158, 137, 1, 235, 28, 250, 20, 241, 206, 9, 244]",5ef0c931cace092dd8a8dd64,5c7dc31ade6f79001849c3a3,5ef0d53ef2d2bf65ffe0ae88,True,,758.6781466379762,f,,f,practice_O_in_Q,1.0,,,,,,,,3.0,0.0,"[0.099999999999999, -0.099999999999999]","[[0.30000000000000004, -0.099999999999999], [0.099999999999999, 0.30000000000000004], [0.30000000000000004, 0.30000000000000004]]",296.6368533670902,2.0
,html-keyboard-response,154,553408,0.0-4.0-0.0-1.0-1.2,f078aa2862041786868ef9f2ad23336df49386eb98fe8259951830bdf7c3dbfd,5c7dc31ade6f79001849c3a3,"[119, 33, 21, 251, 69, 243, 53, 91, 126, 37, 73, 39, 242, 115, 34, 233, 49, 62, 4, 137, 45, 158, 137, 1, 235, 28, 250, 20, 241, 206, 9, 244]",5ef0c931cace092dd8a8dd64,5c7dc31ade6f79001849c3a3,5ef0d53ef2d2bf65ffe0ae88,True,,,,,,,,,"<div style=""width:150px;height:56px;font-size:30px;text-align:center;"">correct!</div>",,,,,,,,,,,
,p5vs_yn,155,555326,0.0-4.0-0.0-1.0-0.3,f078aa2862041786868ef9f2ad23336df49386eb98fe8259951830bdf7c3dbfd,5c7dc31ade6f79001849c3a3,"[119, 33, 21, 251, 69, 243, 53, 91, 126, 37, 73, 39, 242, 115, 34, 233, 49, 62, 4, 137, 45, 158, 137, 1, 235, 28, 250, 20, 241, 206, 9, 244]",5ef0c931cace092dd8a8dd64,5c7dc31ade6f79001849c3a3,5ef0d53ef2d2bf65ffe0ae88,True,,980.2125284913927,j,,j,practice_O_in_Q,1.0,,,,,,,,3.0,1.0,"[-0.30000000000000004, 0.30000000000000004]","[[0.30000000000000004, -0.099999999999999], [0.30000000000000004, 0.30000000000000004], [-0.099999999999999, 0.30000000000000004]]",422.6674714591354,2.0
,html-keyboard-response,156,556328,0.0-4.0-0.0-1.0-1.3,f078aa2862041786868ef9f2ad23336df49386eb98fe8259951830bdf7c3dbfd,5c7dc31ade6f79001849c3a3,"[119, 33, 21, 251, 69, 243, 53, 91, 126, 37, 73, 39, 242, 115, 34, 233, 49, 62, 4, 137, 45, 158, 137, 1, 235, 28, 250, 20, 241, 206, 9, 244]",5ef0c931cace092dd8a8dd64,5c7dc31ade6f79001849c3a3,5ef0d53ef2d2bf65ffe0ae88,True,,,,,,,,,"<div style=""width:150px;height:56px;font-size:30px;text-align:center;"">correct!</div>",,,,,,,,,,,
,p5vs_yn,157,557577,0.0-4.0-1.0-0.0,f078aa2862041786868ef9f2ad23336df49386eb98fe8259951830bdf7c3dbfd,5c7dc31ade6f79001849c3a3,"[119, 33, 21, 251, 69, 243, 53, 91, 126, 37, 73, 39, 242, 115, 34, 233, 49, 62, 4, 137, 45, 158, 137, 1, 235, 28, 250, 20, 241, 206, 9, 244]",5ef0c931cace092dd8a8dd64,5c7dc31ade6f79001849c3a3,5ef0d53ef2d2bf65ffe0ae88,True,,611.7556339595467,j,,j,O_in_Q_vs,1.0,,,,,,,,4.0,1.0,"[-0.33333333333333304, 0.16666666666666602]","[[0, -0.33333333333333304], [0.33333333333333304, 0.16666666666666602], [-0.16666666666666602, -0.16666666666666602], [-0.16666666666666602, 0.16666666666666602]]",122.32936616055667,2.0
,html-keyboard-response,158,558579,0.0-4.0-1.0-1.0,f078aa2862041786868ef9f2ad23336df49386eb98fe8259951830bdf7c3dbfd,5c7dc31ade6f79001849c3a3,"[119, 33, 21, 251, 69, 243, 53, 91, 126, 37, 73, 39, 242, 115, 34, 233, 49, 62, 4, 137, 45, 158, 137, 1, 235, 28, 250, 20, 241, 206, 9, 244]",5ef0c931cace092dd8a8dd64,5c7dc31ade6f79001849c3a3,5ef0d53ef2d2bf65ffe0ae88,True,,,,,,,,,"<div style=""width:150px;height:56px;font-size:30px;text-align:center;"">correct!</div>",,,,,,,,,,,
,p5vs_yn,159,560412,0.0-4.0-1.0-0.1,f078aa2862041786868ef9f2ad23336df49386eb98fe8259951830bdf7c3dbfd,5c7dc31ade6f79001849c3a3,"[119, 33, 21, 251, 69, 243, 53, 91, 126, 37, 73, 39, 242, 115, 34, 233, 49, 62, 4, 137, 45, 158, 137, 1, 235, 28, 250, 20, 241, 206, 9, 244]",5ef0c931cace092dd8a8dd64,5c7dc31ade6f79001849c3a3,5ef0d53ef2d2bf65ffe0ae88,True,,904.1294688358903,f,,f,O_in_Q_vs,1.0,,,,,,,,4.0,0.0,"[0.33333333333333304, 0]","[[0.33333333333333304, 0.16666666666666602], [0, -0.33333333333333304], [0.16666666666666602, 0.16666666666666602], [0.16666666666666602, -0.16666666666666602]]",413.60553074628115,2.0
,html-keyboard-response,160,561413,0.0-4.0-1.0-1.1,f078aa2862041786868ef9f2ad23336df49386eb98fe8259951830bdf7c3dbfd,5c7dc31ade6f79001849c3a3,"[119, 33, 21, 251, 69, 243, 53, 91, 126, 37, 73, 39, 242, 115, 34, 233, 49, 62, 4, 137, 45, 158, 137, 1, 235, 28, 250, 20, 241, 206, 9, 244]",5ef0c931cace092dd8a8dd64,5c7dc31ade6f79001849c3a3,5ef0d53ef2d2bf65ffe0ae88,True,,,,,,,,,"<div style=""width:150px;height:56px;font-size:30px;text-align:center;"">correct!</div>",,,,,,,,,,,
,p5vs_yn,161,562732,0.0-4.0-1.0-0.2,f078aa2862041786868ef9f2ad23336df49386eb98fe8259951830bdf7c3dbfd,5c7dc31ade6f79001849c3a3,"[119, 33, 21, 251, 69, 243, 53, 91, 126, 37, 73, 39, 242, 115, 34, 233, 49, 62, 4, 137, 45, 158, 137, 1, 235, 28, 250, 20, 241, 206, 9, 244]",5ef0c931cace092dd8a8dd64,5c7dc31ade6f79001849c3a3,5ef0d53ef2d2bf65ffe0ae88,True,,562.7475823275745,f,,f,O_in_Q_vs,1.0,,,,,,,,2.0,0.0,"[0.099999999999999, -0.30000000000000004]","[[0.30000000000000004, -0.099999999999999], [-0.30000000000000004, 0.099999999999999]]",250.06741750985384,2.0
,html-keyboard-response,162,563736,0.0-4.0-1.0-1.2,f078aa2862041786868ef9f2ad23336df49386eb98fe8259951830bdf7c3dbfd,5c7dc31ade6f79001849c3a3,"[119, 33, 21, 251, 69, 243, 53, 91, 126, 37, 73, 39, 242, 115, 34, 233, 49, 62, 4, 137, 45, 158, 137, 1, 235, 28, 250, 20, 241, 206, 9, 244]",5ef0c931cace092dd8a8dd64,5c7dc31ade6f79001849c3a3,5ef0d53ef2d2bf65ffe0ae88,True,,,,,,,,,"<div style=""width:150px;height:56px;font-size:30px;text-align:center;"">correct!</div>",,,,,,,,,,,
,p5vs_yn,163,565583,0.0-4.0-1.0-0.3,f078aa2862041786868ef9f2ad23336df49386eb98fe8259951830bdf7c3dbfd,5c7dc31ade6f79001849c3a3,"[119, 33, 21, 251, 69, 243, 53, 91, 126, 37, 73, 39, 242, 115, 34, 233, 49, 62, 4, 137, 45, 158, 137, 1, 235, 28, 250, 20, 241, 206, 9, 244]",5ef0c931cace092dd8a8dd64,5c7dc31ade6f79001849c3a3,5ef0d53ef2d2bf65ffe0ae88,True,,1033.4530387772247,f,,f,O_in_Q_vs,1.0,,,,,,,,8.0,0.0,"[0.16666666666666602, -0.33333333333333304]","[[-0.33333333333333304, 0], [-0.33333333333333304, 0.33333333333333304], [-0.16666666666666602, 0.33333333333333304], [0, -0.16666666666666602], [0, 0.33333333333333304], [0.33333333333333304, -0.33333333333333304], [0.16666666666666602, 0], [0.16666666666666602, -0.16666666666666602]]",301.79196095559746,2.0
,html-keyboard-response,164,566588,0.0-4.0-1.0-1.3,f078aa2862041786868ef9f2ad23336df49386eb98fe8259951830bdf7c3dbfd,5c7dc31ade6f79001849c3a3,"[119, 33, 21, 251, 69, 243, 53, 91, 126, 37, 73, 39, 242, 115, 34, 233, 49, 62, 4, 137, 45, 158, 137, 1, 235, 28, 250, 20, 241, 206, 9, 244]",5ef0c931cace092dd8a8dd64,5c7dc31ade6f79001849c3a3,5ef0d53ef2d2bf65ffe0ae88,True,,,,,,,,,"<div style=""width:150px;height:56px;font-size:30px;text-align:center;"">correct!</div>",,,,,,,,,,,
,p5vs_yn,165,568268,0.0-4.0-1.0-0.4,f078aa2862041786868ef9f2ad23336df49386eb98fe8259951830bdf7c3dbfd,5c7dc31ade6f79001849c3a3,"[119, 33, 21, 251, 69, 243, 53, 91, 126, 37, 73, 39, 242, 115, 34, 233, 49, 62, 4, 137, 45, 158, 137, 1, 235, 28, 250, 20, 241, 206, 9, 244]",5ef0c931cace092dd8a8dd64,5c7dc31ade6f79001849c3a3,5ef0d53ef2d2bf65ffe0ae88,True,,1011.9464069139212,f,,f,O_in_Q_vs,1.0,,,,,,,,1.0,0.0,"[0.099999999999999, 0.099999999999999]","[[0.30000000000000004, -0.099999999999999]]",160.1935930084437,2.0
,html-keyboard-response,166,569272,0.0-4.0-1.0-1.4,f078aa2862041786868ef9f2ad23336df49386eb98fe8259951830bdf7c3dbfd,5c7dc31ade6f79001849c3a3,"[119, 33, 21, 251, 69, 243, 53, 91, 126, 37, 73, 39, 242, 115, 34, 233, 49, 62, 4, 137, 45, 158, 137, 1, 235, 28, 250, 20, 241, 206, 9, 244]",5ef0c931cace092dd8a8dd64,5c7dc31ade6f79001849c3a3,5ef0d53ef2d2bf65ffe0ae88,True,,,,,,,,,"<div style=""width:150px;height:56px;font-size:30px;text-align:center;"">correct!</div>",,,,,,,,,,,
,p5vs_yn,167,570706,0.0-4.0-1.0-0.5,f078aa2862041786868ef9f2ad23336df49386eb98fe8259951830bdf7c3dbfd,5c7dc31ade6f79001849c3a3,"[119, 33, 21, 251, 69, 243, 53, 91, 126, 37, 73, 39, 242, 115, 34, 233, 49, 62, 4, 137, 45, 158, 137, 1, 235, 28, 250, 20, 241, 206, 9, 244]",5ef0c931cace092dd8a8dd64,5c7dc31ade6f79001849c3a3,5ef0d53ef2d2bf65ffe0ae88,True,,657.387919141911,j,,j,O_in_Q_vs,1.0,,,,,,,,2.0,1.0,"[-0.30000000000000004, 0.30000000000000004]","[[0.099999999999999, -0.30000000000000004], [-0.099999999999999, 0.099999999999999]]",274.89208069164306,2.0
,html-keyboard-response,168,571710,0.0-4.0-1.0-1.5,f078aa2862041786868ef9f2ad23336df49386eb98fe8259951830bdf7c3dbfd,5c7dc31ade6f79001849c3a3,"[119, 33, 21, 251, 69, 243, 53, 91, 126, 37, 73, 39, 242, 115, 34, 233, 49, 62, 4, 137, 45, 158, 137, 1, 235, 28, 250, 20, 241, 206, 9, 244]",5ef0c931cace092dd8a8dd64,5c7dc31ade6f79001849c3a3,5ef0d53ef2d2bf65ffe0ae88,True,,,,,,,,,"<div style=""width:150px;height:56px;font-size:30px;text-align:center;"">correct!</div>",,,,,,,,,,,
,p5vs_yn,169,573223,0.0-4.0-1.0-0.6,f078aa2862041786868ef9f2ad23336df49386eb98fe8259951830bdf7c3dbfd,5c7dc31ade6f79001849c3a3,"[119, 33, 21, 251, 69, 243, 53, 91, 126, 37, 73, 39, 242, 115, 34, 233, 49, 62, 4, 137, 45, 158, 137, 1, 235, 28, 250, 20, 241, 206, 9, 244]",5ef0c931cace092dd8a8dd64,5c7dc31ade6f79001849c3a3,5ef0d53ef2d2bf65ffe0ae88,True,,550.7164220325649,j,,j,O_in_Q_vs,1.0,,,,,,,,1.0,1.0,"[0.099999999999999, -0.30000000000000004]","[[-0.30000000000000004, -0.30000000000000004]]",449.34857822954655,2.0
,html-keyboard-response,170,574229,0.0-4.0-1.0-1.6,f078aa2862041786868ef9f2ad23336df49386eb98fe8259951830bdf7c3dbfd,5c7dc31ade6f79001849c3a3,"[119, 33, 21, 251, 69, 243, 53, 91, 126, 37, 73, 39, 242, 115, 34, 233, 49, 62, 4, 137, 45, 158, 137, 1, 235, 28, 250, 20, 241, 206, 9, 244]",5ef0c931cace092dd8a8dd64,5c7dc31ade6f79001849c3a3,5ef0d53ef2d2bf65ffe0ae88,True,,,,,,,,,"<div style=""width:150px;height:56px;font-size:30px;text-align:center;"">correct!</div>",,,,,,,,,,,
,p5vs_yn,171,575409,0.0-4.0-1.0-0.7,f078aa2862041786868ef9f2ad23336df49386eb98fe8259951830bdf7c3dbfd,5c7dc31ade6f79001849c3a3,"[119, 33, 21, 251, 69, 243, 53, 91, 126, 37, 73, 39, 242, 115, 34, 233, 49, 62, 4, 137, 45, 158, 137, 1, 235, 28, 250, 20, 241, 206, 9, 244]",5ef0c931cace092dd8a8dd64,5c7dc31ade6f79001849c3a3,5ef0d53ef2d2bf65ffe0ae88,True,,630.577146075666,j,,j,O_in_Q_vs,1.0,,,,,,,,8.0,1.0,"[0.16666666666666602, 0.16666666666666602]","[[0.16666666666666602, -0.33333333333333304], [0.16666666666666602, 0], [0.33333333333333304, -0.16666666666666602], [0, 0.16666666666666602], [-0.33333333333333304, 0.33333333333333304], [-0.33333333333333304, 0], [0, -0.16666666666666602], [0.16666666666666602, -0.16666666666666602]]",33.13285391777754,2.0
,html-keyboard-response,172,576412,0.0-4.0-1.0-1.7,f078aa2862041786868ef9f2ad23336df49386eb98fe8259951830bdf7c3dbfd,5c7dc31ade6f79001849c3a3,"[119, 33, 21, 251, 69, 243, 53, 91, 126, 37, 73, 39, 242, 115, 34, 233, 49, 62, 4, 137, 45, 158, 137, 1, 235, 28, 250, 20, 241, 206, 9, 244]",5ef0c931cace092dd8a8dd64,5c7dc31ade6f79001849c3a3,5ef0d53ef2d2bf65ffe0ae88,True,,,,,,,,,"<div style=""width:150px;height:56px;font-size:30px;text-align:center;"">correct!</div>",,,,,,,,,,,
,p5vs_yn,173,577660,0.0-4.0-1.0-0.8,f078aa2862041786868ef9f2ad23336df49386eb98fe8259951830bdf7c3dbfd,5c7dc31ade6f79001849c3a3,"[119, 33, 21, 251, 69, 243, 53, 91, 126, 37, 73, 39, 242, 115, 34, 233, 49, 62, 4, 137, 45, 158, 137, 1, 235, 28, 250, 20, 241, 206, 9, 244]",5ef0c931cace092dd8a8dd64,5c7dc31ade6f79001849c3a3,5ef0d53ef2d2bf65ffe0ae88,True,,556.2560564139858,f,,f,O_in_Q_vs,1.0,,,,,,,,1.0,0.0,"[0.099999999999999, 0.099999999999999]","[[-0.30000000000000004, 0.30000000000000004]]",186.778943403624,2.0
,html-keyboard-response,174,578665,0.0-4.0-1.0-1.8,f078aa2862041786868ef9f2ad23336df49386eb98fe8259951830bdf7c3dbfd,5c7dc31ade6f79001849c3a3,"[119, 33, 21, 251, 69, 243, 53, 91, 126, 37, 73, 39, 242, 115, 34, 233, 49, 62, 4, 137, 45, 158, 137, 1, 235, 28, 250, 20, 241, 206, 9, 244]",5ef0c931cace092dd8a8dd64,5c7dc31ade6f79001849c3a3,5ef0d53ef2d2bf65ffe0ae88,True,,,,,,,,,"<div style=""width:150px;height:56px;font-size:30px;text-align:center;"">correct!</div>",,,,,,,,,,,
,p5vs_yn,175,580262,0.0-4.0-1.0-0.9,f078aa2862041786868ef9f2ad23336df49386eb98fe8259951830bdf7c3dbfd,5c7dc31ade6f79001849c3a3,"[119, 33, 21, 251, 69, 243, 53, 91, 126, 37, 73, 39, 242, 115, 34, 233, 49, 62, 4, 137, 45, 158, 137, 1, 235, 28, 250, 20, 241, 206, 9, 244]",5ef0c931cace092dd8a8dd64,5c7dc31ade6f79001849c3a3,5ef0d53ef2d2bf65ffe0ae88,True,,628.9399780798703,j,,j,O_in_Q_vs,1.0,,,,,,,,8.0,1.0,"[0.16666666666666602, 0.16666666666666602]","[[0.16666666666666602, 0.33333333333333304], [0.33333333333333304, -0.16666666666666602], [-0.16666666666666602, -0.16666666666666602], [0.33333333333333304, 0.33333333333333304], [-0.33333333333333304, 0.33333333333333304], [-0.33333333333333304, -0.33333333333333304], [-0.16666666666666602, 0], [0, -0.33333333333333304]]",458.46002199687064,2.0
,html-keyboard-response,176,581265,0.0-4.0-1.0-1.9,f078aa2862041786868ef9f2ad23336df49386eb98fe8259951830bdf7c3dbfd,5c7dc31ade6f79001849c3a3,"[119, 33, 21, 251, 69, 243, 53, 91, 126, 37, 73, 39, 242, 115, 34, 233, 49, 62, 4, 137, 45, 158, 137, 1, 235, 28, 250, 20, 241, 206, 9, 244]",5ef0c931cace092dd8a8dd64,5c7dc31ade6f79001849c3a3,5ef0d53ef2d2bf65ffe0ae88,True,,,,,,,,,"<div style=""width:150px;height:56px;font-size:30px;text-align:center;"">correct!</div>",,,,,,,,,,,
,p5vs_yn,177,582631,0.0-4.0-1.0-0.10,f078aa2862041786868ef9f2ad23336df49386eb98fe8259951830bdf7c3dbfd,5c7dc31ade6f79001849c3a3,"[119, 33, 21, 251, 69, 243, 53, 91, 126, 37, 73, 39, 242, 115, 34, 233, 49, 62, 4, 137, 45, 158, 137, 1, 235, 28, 250, 20, 241, 206, 9, 244]",5ef0c931cace092dd8a8dd64,5c7dc31ade6f79001849c3a3,5ef0d53ef2d2bf65ffe0ae88,True,,710.0556335644796,f,,f,O_in_Q_vs,1.0,,,,,,,,4.0,0.0,"[0.16666666666666602, 0.16666666666666602]","[[0, 0], [-0.33333333333333304, 0], [0, -0.33333333333333304], [0.33333333333333304, 0]]",140.84936620201916,2.0
,html-keyboard-response,178,583633,0.0-4.0-1.0-1.10,f078aa2862041786868ef9f2ad23336df49386eb98fe8259951830bdf7c3dbfd,5c7dc31ade6f79001849c3a3,"[119, 33, 21, 251, 69, 243, 53, 91, 126, 37, 73, 39, 242, 115, 34, 233, 49, 62, 4, 137, 45, 158, 137, 1, 235, 28, 250, 20, 241, 206, 9, 244]",5ef0c931cace092dd8a8dd64,5c7dc31ade6f79001849c3a3,5ef0d53ef2d2bf65ffe0ae88,True,,,,,,,,,"<div style=""width:150px;height:56px;font-size:30px;text-align:center;"">correct!</div>",,,,,,,,,,,
,p5vs_yn,179,585550,0.0-4.0-1.0-0.11,f078aa2862041786868ef9f2ad23336df49386eb98fe8259951830bdf7c3dbfd,5c7dc31ade6f79001849c3a3,"[119, 33, 21, 251, 69, 243, 53, 91, 126, 37, 73, 39, 242, 115, 34, 233, 49, 62, 4, 137, 45, 158, 137, 1, 235, 28, 250, 20, 241, 206, 9, 244]",5ef0c931cace092dd8a8dd64,5c7dc31ade6f79001849c3a3,5ef0d53ef2d2bf65ffe0ae88,True,,1037.742410437204,f,,f,O_in_Q_vs,1.0,,,,,,,,8.0,0.0,"[0, -0.33333333333333304]","[[0.33333333333333304, 0], [0.16666666666666602, 0], [0.33333333333333304, -0.16666666666666602], [0.16666666666666602, 0.33333333333333304], [-0.16666666666666602, -0.16666666666666602], [-0.16666666666666602, 0], [-0.33333333333333304, 0], [0, 0.33333333333333304]]",372.4325894145295,2.0
,html-keyboard-response,180,586553,0.0-4.0-1.0-1.11,f078aa2862041786868ef9f2ad23336df49386eb98fe8259951830bdf7c3dbfd,5c7dc31ade6f79001849c3a3,"[119, 33, 21, 251, 69, 243, 53, 91, 126, 37, 73, 39, 242, 115, 34, 233, 49, 62, 4, 137, 45, 158, 137, 1, 235, 28, 250, 20, 241, 206, 9, 244]",5ef0c931cace092dd8a8dd64,5c7dc31ade6f79001849c3a3,5ef0d53ef2d2bf65ffe0ae88,True,,,,,,,,,"<div style=""width:150px;height:56px;font-size:30px;text-align:center;"">correct!</div>",,,,,,,,,,,
,p5vs_yn,181,587819,0.0-4.0-1.0-0.12,f078aa2862041786868ef9f2ad23336df49386eb98fe8259951830bdf7c3dbfd,5c7dc31ade6f79001849c3a3,"[119, 33, 21, 251, 69, 243, 53, 91, 126, 37, 73, 39, 242, 115, 34, 233, 49, 62, 4, 137, 45, 158, 137, 1, 235, 28, 250, 20, 241, 206, 9, 244]",5ef0c931cace092dd8a8dd64,5c7dc31ade6f79001849c3a3,5ef0d53ef2d2bf65ffe0ae88,True,,641.7210365179926,j,,j,O_in_Q_vs,1.0,,,,,,,,4.0,1.0,"[0.16666666666666602, -0.16666666666666602]","[[0, 0], [-0.33333333333333304, 0.33333333333333304], [0.33333333333333304, 0.33333333333333304], [0.33333333333333304, 0]]",107.68896364606917,2.0
,html-keyboard-response,182,588823,0.0-4.0-1.0-1.12,f078aa2862041786868ef9f2ad23336df49386eb98fe8259951830bdf7c3dbfd,5c7dc31ade6f79001849c3a3,"[119, 33, 21, 251, 69, 243, 53, 91, 126, 37, 73, 39, 242, 115, 34, 233, 49, 62, 4, 137, 45, 158, 137, 1, 235, 28, 250, 20, 241, 206, 9, 244]",5ef0c931cace092dd8a8dd64,5c7dc31ade6f79001849c3a3,5ef0d53ef2d2bf65ffe0ae88,True,,,,,,,,,"<div style=""width:150px;height:56px;font-size:30px;text-align:center;"">correct!</div>",,,,,,,,,,,
,p5vs_yn,183,590154,0.0-4.0-1.0-0.13,f078aa2862041786868ef9f2ad23336df49386eb98fe8259951830bdf7c3dbfd,5c7dc31ade6f79001849c3a3,"[119, 33, 21, 251, 69, 243, 53, 91, 126, 37, 73, 39, 242, 115, 34, 233, 49, 62, 4, 137, 45, 158, 137, 1, 235, 28, 250, 20, 241, 206, 9, 244]",5ef0c931cace092dd8a8dd64,5c7dc31ade6f79001849c3a3,5ef0d53ef2d2bf65ffe0ae88,True,,558.2008969504386,f,,f,O_in_Q_vs,1.0,,,,,,,,2.0,0.0,"[-0.099999999999999, -0.30000000000000004]","[[-0.099999999999999, 0.099999999999999], [0.30000000000000004, 0.099999999999999]]",260.7841028366238,2.0
,html-keyboard-response,184,591158,0.0-4.0-1.0-1.13,f078aa2862041786868ef9f2ad23336df49386eb98fe8259951830bdf7c3dbfd,5c7dc31ade6f79001849c3a3,"[119, 33, 21, 251, 69, 243, 53, 91, 126, 37, 73, 39, 242, 115, 34, 233, 49, 62, 4, 137, 45, 158, 137, 1, 235, 28, 250, 20, 241, 206, 9, 244]",5ef0c931cace092dd8a8dd64,5c7dc31ade6f79001849c3a3,5ef0d53ef2d2bf65ffe0ae88,True,,,,,,,,,"<div style=""width:150px;height:56px;font-size:30px;text-align:center;"">correct!</div>",,,,,,,,,,,
,p5vs_yn,185,592188,0.0-4.0-1.0-0.14,f078aa2862041786868ef9f2ad23336df49386eb98fe8259951830bdf7c3dbfd,5c7dc31ade6f79001849c3a3,"[119, 33, 21, 251, 69, 243, 53, 91, 126, 37, 73, 39, 242, 115, 34, 233, 49, 62, 4, 137, 45, 158, 137, 1, 235, 28, 250, 20, 241, 206, 9, 244]",5ef0c931cace092dd8a8dd64,5c7dc31ade6f79001849c3a3,5ef0d53ef2d2bf65ffe0ae88,True,,460.5343525763601,j,,j,O_in_Q_vs,1.0,,,,,,,,1.0,1.0,"[0.30000000000000004, -0.099999999999999]","[[-0.099999999999999, 0.099999999999999]]",59.40564745105803,2.0
,html-keyboard-response,186,593194,0.0-4.0-1.0-1.14,f078aa2862041786868ef9f2ad23336df49386eb98fe8259951830bdf7c3dbfd,5c7dc31ade6f79001849c3a3,"[119, 33, 21, 251, 69, 243, 53, 91, 126, 37, 73, 39, 242, 115, 34, 233, 49, 62, 4, 137, 45, 158, 137, 1, 235, 28, 250, 20, 241, 206, 9, 244]",5ef0c931cace092dd8a8dd64,5c7dc31ade6f79001849c3a3,5ef0d53ef2d2bf65ffe0ae88,True,,,,,,,,,"<div style=""width:150px;height:56px;font-size:30px;text-align:center;"">correct!</div>",,,,,,,,,,,
,p5vs_yn,187,594532,0.0-4.0-1.0-0.15,f078aa2862041786868ef9f2ad23336df49386eb98fe8259951830bdf7c3dbfd,5c7dc31ade6f79001849c3a3,"[119, 33, 21, 251, 69, 243, 53, 91, 126, 37, 73, 39, 242, 115, 34, 233, 49, 62, 4, 137, 45, 158, 137, 1, 235, 28, 250, 20, 241, 206, 9, 244]",5ef0c931cace092dd8a8dd64,5c7dc31ade6f79001849c3a3,5ef0d53ef2d2bf65ffe0ae88,True,,500.03989483229816,j,,j,O_in_Q_vs,1.0,,,,,,,,2.0,1.0,"[0.099999999999999, 0.099999999999999]","[[-0.099999999999999, -0.30000000000000004], [-0.30000000000000004, -0.099999999999999]]",334.52010503970087,2.0
,html-keyboard-response,188,595534,0.0-4.0-1.0-1.15,f078aa2862041786868ef9f2ad23336df49386eb98fe8259951830bdf7c3dbfd,5c7dc31ade6f79001849c3a3,"[119, 33, 21, 251, 69, 243, 53, 91, 126, 37, 73, 39, 242, 115, 34, 233, 49, 62, 4, 137, 45, 158, 137, 1, 235, 28, 250, 20, 241, 206, 9, 244]",5ef0c931cace092dd8a8dd64,5c7dc31ade6f79001849c3a3,5ef0d53ef2d2bf65ffe0ae88,True,,,,,,,,,"<div style=""width:150px;height:56px;font-size:30px;text-align:center;"">correct!</div>",,,,,,,,,,,
,p5Text,189,598389,0.0-4.0-2.0,f078aa2862041786868ef9f2ad23336df49386eb98fe8259951830bdf7c3dbfd,5c7dc31ade6f79001849c3a3,"[119, 33, 21, 251, 69, 243, 53, 91, 126, 37, 73, 39, 242, 115, 34, 233, 49, 62, 4, 137, 45, 158, 137, 1, 235, 28, 250, 20, 241, 206, 9, 244]",5ef0c931cace092dd8a8dd64,5c7dc31ade6f79001849c3a3,5ef0d53ef2d2bf65ffe0ae88,True,,,,,,,,,,,,,,,,,,,,
,p5Text,190,600639,0.0-4.0-3.0,f078aa2862041786868ef9f2ad23336df49386eb98fe8259951830bdf7c3dbfd,5c7dc31ade6f79001849c3a3,"[119, 33, 21, 251, 69, 243, 53, 91, 126, 37, 73, 39, 242, 115, 34, 233, 49, 62, 4, 137, 45, 158, 137, 1, 235, 28, 250, 20, 241, 206, 9, 244]",5ef0c931cace092dd8a8dd64,5c7dc31ade6f79001849c3a3,5ef0d53ef2d2bf65ffe0ae88,True,,,,,,,,,,,,,,,,,,,,
,p5vs_yn,191,602229,0.0-4.0-4.0-0.0,f078aa2862041786868ef9f2ad23336df49386eb98fe8259951830bdf7c3dbfd,5c7dc31ade6f79001849c3a3,"[119, 33, 21, 251, 69, 243, 53, 91, 126, 37, 73, 39, 242, 115, 34, 233, 49, 62, 4, 137, 45, 158, 137, 1, 235, 28, 250, 20, 241, 206, 9, 244]",5ef0c931cace092dd8a8dd64,5c7dc31ade6f79001849c3a3,5ef0d53ef2d2bf65ffe0ae88,True,,589.9541719118133,j,,j,O_in_Q_vs,1.0,,,,,,,,8.0,1.0,"[0, 0.16666666666666602]","[[-0.33333333333333304, 0.16666666666666602], [0.16666666666666602, -0.33333333333333304], [-0.33333333333333304, 0], [0.33333333333333304, 0], [-0.16666666666666602, -0.33333333333333304], [0, -0.33333333333333304], [-0.33333333333333304, -0.16666666666666602], [0, -0.16666666666666602]]",483.21582830976695,2.0
,html-keyboard-response,192,603235,0.0-4.0-4.0-1.0,f078aa2862041786868ef9f2ad23336df49386eb98fe8259951830bdf7c3dbfd,5c7dc31ade6f79001849c3a3,"[119, 33, 21, 251, 69, 243, 53, 91, 126, 37, 73, 39, 242, 115, 34, 233, 49, 62, 4, 137, 45, 158, 137, 1, 235, 28, 250, 20, 241, 206, 9, 244]",5ef0c931cace092dd8a8dd64,5c7dc31ade6f79001849c3a3,5ef0d53ef2d2bf65ffe0ae88,True,,,,,,,,,"<div style=""width:150px;height:56px;font-size:30px;text-align:center;"">correct!</div>",,,,,,,,,,,
,p5vs_yn,193,604682,0.0-4.0-4.0-0.1,f078aa2862041786868ef9f2ad23336df49386eb98fe8259951830bdf7c3dbfd,5c7dc31ade6f79001849c3a3,"[119, 33, 21, 251, 69, 243, 53, 91, 126, 37, 73, 39, 242, 115, 34, 233, 49, 62, 4, 137, 45, 158, 137, 1, 235, 28, 250, 20, 241, 206, 9, 244]",5ef0c931cace092dd8a8dd64,5c7dc31ade6f79001849c3a3,5ef0d53ef2d2bf65ffe0ae88,True,,538.5344754904509,j,,j,O_in_Q_vs,1.0,,,,,,,,2.0,1.0,"[0.30000000000000004, -0.30000000000000004]","[[-0.30000000000000004, 0.30000000000000004], [-0.30000000000000004, -0.099999999999999]]",406.29552444443107,2.0
,html-keyboard-response,194,605684,0.0-4.0-4.0-1.1,f078aa2862041786868ef9f2ad23336df49386eb98fe8259951830bdf7c3dbfd,5c7dc31ade6f79001849c3a3,"[119, 33, 21, 251, 69, 243, 53, 91, 126, 37, 73, 39, 242, 115, 34, 233, 49, 62, 4, 137, 45, 158, 137, 1, 235, 28, 250, 20, 241, 206, 9, 244]",5ef0c931cace092dd8a8dd64,5c7dc31ade6f79001849c3a3,5ef0d53ef2d2bf65ffe0ae88,True,,,,,,,,,"<div style=""width:150px;height:56px;font-size:30px;text-align:center;"">correct!</div>",,,,,,,,,,,
,p5vs_yn,195,607016,0.0-4.0-4.0-0.2,f078aa2862041786868ef9f2ad23336df49386eb98fe8259951830bdf7c3dbfd,5c7dc31ade6f79001849c3a3,"[119, 33, 21, 251, 69, 243, 53, 91, 126, 37, 73, 39, 242, 115, 34, 233, 49, 62, 4, 137, 45, 158, 137, 1, 235, 28, 250, 20, 241, 206, 9, 244]",5ef0c931cace092dd8a8dd64,5c7dc31ade6f79001849c3a3,5ef0d53ef2d2bf65ffe0ae88,True,,680.7308214483783,f,,f,O_in_Q_vs,1.0,,,,,,,,4.0,0.0,"[-0.33333333333333304, -0.33333333333333304]","[[0.33333333333333304, -0.33333333333333304], [0.33333333333333304, -0.16666666666666602], [-0.33333333333333304, 0.16666666666666602], [0.33333333333333304, 0]]",139.54917865339667,2.0
,html-keyboard-response,196,608022,0.0-4.0-4.0-1.2,f078aa2862041786868ef9f2ad23336df49386eb98fe8259951830bdf7c3dbfd,5c7dc31ade6f79001849c3a3,"[119, 33, 21, 251, 69, 243, 53, 91, 126, 37, 73, 39, 242, 115, 34, 233, 49, 62, 4, 137, 45, 158, 137, 1, 235, 28, 250, 20, 241, 206, 9, 244]",5ef0c931cace092dd8a8dd64,5c7dc31ade6f79001849c3a3,5ef0d53ef2d2bf65ffe0ae88,True,,,,,,,,,"<div style=""width:150px;height:56px;font-size:30px;text-align:center;"">correct!</div>",,,,,,,,,,,
,p5vs_yn,197,609118,0.0-4.0-4.0-0.3,f078aa2862041786868ef9f2ad23336df49386eb98fe8259951830bdf7c3dbfd,5c7dc31ade6f79001849c3a3,"[119, 33, 21, 251, 69, 243, 53, 91, 126, 37, 73, 39, 242, 115, 34, 233, 49, 62, 4, 137, 45, 158, 137, 1, 235, 28, 250, 20, 241, 206, 9, 244]",5ef0c931cace092dd8a8dd64,5c7dc31ade6f79001849c3a3,5ef0d53ef2d2bf65ffe0ae88,True,,511.18463510647416,j,,j,O_in_Q_vs,1.0,,,,,,,,1.0,1.0,"[0.099999999999999, 0.099999999999999]","[[0.099999999999999, 0.30000000000000004]]",74.91036457940936,2.0
,html-keyboard-response,198,610119,0.0-4.0-4.0-1.3,f078aa2862041786868ef9f2ad23336df49386eb98fe8259951830bdf7c3dbfd,5c7dc31ade6f79001849c3a3,"[119, 33, 21, 251, 69, 243, 53, 91, 126, 37, 73, 39, 242, 115, 34, 233, 49, 62, 4, 137, 45, 158, 137, 1, 235, 28, 250, 20, 241, 206, 9, 244]",5ef0c931cace092dd8a8dd64,5c7dc31ade6f79001849c3a3,5ef0d53ef2d2bf65ffe0ae88,True,,,,,,,,,"<div style=""width:150px;height:56px;font-size:30px;text-align:center;"">correct!</div>",,,,,,,,,,,
,p5vs_yn,199,611653,0.0-4.0-4.0-0.4,f078aa2862041786868ef9f2ad23336df49386eb98fe8259951830bdf7c3dbfd,5c7dc31ade6f79001849c3a3,"[119, 33, 21, 251, 69, 243, 53, 91, 126, 37, 73, 39, 242, 115, 34, 233, 49, 62, 4, 137, 45, 158, 137, 1, 235, 28, 250, 20, 241, 206, 9, 244]",5ef0c931cace092dd8a8dd64,5c7dc31ade6f79001849c3a3,5ef0d53ef2d2bf65ffe0ae88,True,,622.9828544892371,f,,f,O_in_Q_vs,1.0,,,,,,,,2.0,0.0,"[-0.30000000000000004, -0.30000000000000004]","[[0.099999999999999, 0.099999999999999], [-0.099999999999999, -0.099999999999999]]",397.58714521303773,2.0
