,success,trial_type,trial_index,time_elapsed,internal_node_id,protocol_sum,subject_identifier,subject_sum,followed_instructions,STUDY_ID,PROLIFIC_PID,SESSION_ID,which_stimulus,RT,response,SOA,correct_response,test_part,correct,rt,stimulus,key_press,confidence,conf_RT,responses,question_order,set_size,target_present,target_position,distractor_positions
0,1.0,fullscreen,0,17145,0.0-0.0,f078aa2862041786868ef9f2ad23336df49386eb98fe8259951830bdf7c3dbfd,5e53ab77265dcf3af7fedf02,"[52, 164, 254, 182, 102, 180, 30, 1, 2, 34, 81, 239, 102, 57, 59, 204, 224, 48, 20, 165, 17, 235, 254, 116, 41, 240, 114, 193, 108, 150, 37, 23]",True,5eeb5e0931ca2e0729ebc16d,5e53ab77265dcf3af7fedf02,5eeb7657d655892db4beeba8,,,,,,,,,,,,,,,,,,
1,,p5Text,1,47842,0.0-1.0,f078aa2862041786868ef9f2ad23336df49386eb98fe8259951830bdf7c3dbfd,5e53ab77265dcf3af7fedf02,"[52, 164, 254, 182, 102, 180, 30, 1, 2, 34, 81, 239, 102, 57, 59, 204, 224, 48, 20, 165, 17, 235, 254, 116, 41, 240, 114, 193, 108, 150, 37, 23]",True,5eeb5e0931ca2e0729ebc16d,5e53ab77265dcf3af7fedf02,5eeb7657d655892db4beeba8,,,,,,,,,,,,,,,,,,
2,,p5Text,2,155098,0.0-2.0-0.0,f078aa2862041786868ef9f2ad23336df49386eb98fe8259951830bdf7c3dbfd,5e53ab77265dcf3af7fedf02,"[52, 164, 254, 182, 102, 180, 30, 1, 2, 34, 81, 239, 102, 57, 59, 204, 224, 48, 20, 165, 17, 235, 254, 116, 41, 240, 114, 193, 108, 150, 37, 23]",True,5eeb5e0931ca2e0729ebc16d,5e53ab77265dcf3af7fedf02,5eeb7657d655892db4beeba8,,,,,,,,,,,,,,,,,,
3,,disc,3,183456,0.0-2.0-1.0-0.0,f078aa2862041786868ef9f2ad23336df49386eb98fe8259951830bdf7c3dbfd,5e53ab77265dcf3af7fedf02,"[52, 164, 254, 182, 102, 180, 30, 1, 2, 34, 81, 239, 102, 57, 59, 204, 224, 48, 20, 165, 17, 235, 254, 116, 41, 240, 114, 193, 108, 150, 37, 23]",True,5eeb5e0931ca2e0729ebc16d,5e53ab77265dcf3af7fedf02,5eeb7657d655892db4beeba8,1.0,27840.65999998711,w,50.0,q,disc_practice,0.0,,,,,,,,,,,
4,,html-keyboard-response,4,184966,0.0-2.0-1.0-1.0,f078aa2862041786868ef9f2ad23336df49386eb98fe8259951830bdf7c3dbfd,5e53ab77265dcf3af7fedf02,"[52, 164, 254, 182, 102, 180, 30, 1, 2, 34, 81, 239, 102, 57, 59, 204, 224, 48, 20, 165, 17, 235, 254, 116, 41, 240, 114, 193, 108, 150, 37, 23]",True,5eeb5e0931ca2e0729ebc16d,5e53ab77265dcf3af7fedf02,5eeb7657d655892db4beeba8,,,,,,,,,"<div style=""width:150px;height:56px;border:0px;font-size:30px;text-align:center"">wrong.</div>",,,,,,,,,
5,,disc,5,187014,0.0-2.0-1.0-0.1,f078aa2862041786868ef9f2ad23336df49386eb98fe8259951830bdf7c3dbfd,5e53ab77265dcf3af7fedf02,"[52, 164, 254, 182, 102, 180, 30, 1, 2, 34, 81, 239, 102, 57, 59, 204, 224, 48, 20, 165, 17, 235, 254, 116, 41, 240, 114, 193, 108, 150, 37, 23]",True,5eeb5e0931ca2e0729ebc16d,5e53ab77265dcf3af7fedf02,5eeb7657d655892db4beeba8,2.0,1528.8000000000466,w,55.55555555555556,w,disc_practice,1.0,,,,,,,,,,,
6,,html-keyboard-response,6,188020,0.0-2.0-1.0-1.1,f078aa2862041786868ef9f2ad23336df49386eb98fe8259951830bdf7c3dbfd,5e53ab77265dcf3af7fedf02,"[52, 164, 254, 182, 102, 180, 30, 1, 2, 34, 81, 239, 102, 57, 59, 204, 224, 48, 20, 165, 17, 235, 254, 116, 41, 240, 114, 193, 108, 150, 37, 23]",True,5eeb5e0931ca2e0729ebc16d,5e53ab77265dcf3af7fedf02,5eeb7657d655892db4beeba8,,,,,,,,,"<div style=""width:150px;height:56px;font-size:30px;text-align:center;"">correct!</div>",,,,,,,,,
7,,disc,7,190432,0.0-2.0-1.0-0.2,f078aa2862041786868ef9f2ad23336df49386eb98fe8259951830bdf7c3dbfd,5e53ab77265dcf3af7fedf02,"[52, 164, 254, 182, 102, 180, 30, 1, 2, 34, 81, 239, 102, 57, 59, 204, 224, 48, 20, 165, 17, 235, 254, 116, 41, 240, 114, 193, 108, 150, 37, 23]",True,5eeb5e0931ca2e0729ebc16d,5e53ab77265dcf3af7fedf02,5eeb7657d655892db4beeba8,2.0,1892.9749999952037,w,55.55555555555556,w,disc_practice,1.0,,,,,,,,,,,
8,,html-keyboard-response,8,191437,0.0-2.0-1.0-1.2,f078aa2862041786868ef9f2ad23336df49386eb98fe8259951830bdf7c3dbfd,5e53ab77265dcf3af7fedf02,"[52, 164, 254, 182, 102, 180, 30, 1, 2, 34, 81, 239, 102, 57, 59, 204, 224, 48, 20, 165, 17, 235, 254, 116, 41, 240, 114, 193, 108, 150, 37, 23]",True,5eeb5e0931ca2e0729ebc16d,5e53ab77265dcf3af7fedf02,5eeb7657d655892db4beeba8,,,,,,,,,"<div style=""width:150px;height:56px;font-size:30px;text-align:center;"">correct!</div>",,,,,,,,,
9,,disc,9,193215,0.0-2.0-1.0-0.3,f078aa2862041786868ef9f2ad23336df49386eb98fe8259951830bdf7c3dbfd,5e53ab77265dcf3af7fedf02,"[52, 164, 254, 182, 102, 180, 30, 1, 2, 34, 81, 239, 102, 57, 59, 204, 224, 48, 20, 165, 17, 235, 254, 116, 41, 240, 114, 193, 108, 150, 37, 23]",True,5eeb5e0931ca2e0729ebc16d,5e53ab77265dcf3af7fedf02,5eeb7657d655892db4beeba8,1.0,1266.8549999943934,w,55.55555555555556,q,disc_practice,0.0,,,,,,,,,,,
10,,html-keyboard-response,10,194718,0.0-2.0-1.0-1.3,f078aa2862041786868ef9f2ad23336df49386eb98fe8259951830bdf7c3dbfd,5e53ab77265dcf3af7fedf02,"[52, 164, 254, 182, 102, 180, 30, 1, 2, 34, 81, 239, 102, 57, 59, 204, 224, 48, 20, 165, 17, 235, 254, 116, 41, 240, 114, 193, 108, 150, 37, 23]",True,5eeb5e0931ca2e0729ebc16d,5e53ab77265dcf3af7fedf02,5eeb7657d655892db4beeba8,,,,,,,,,"<div style=""width:150px;height:56px;border:0px;font-size:30px;text-align:center"">wrong.</div>",,,,,,,,,
11,,p5Text,11,231495,0.0-2.0-2.0,f078aa2862041786868ef9f2ad23336df49386eb98fe8259951830bdf7c3dbfd,5e53ab77265dcf3af7fedf02,"[52, 164, 254, 182, 102, 180, 30, 1, 2, 34, 81, 239, 102, 57, 59, 204, 224, 48, 20, 165, 17, 235, 254, 116, 41, 240, 114, 193, 108, 150, 37, 23]",True,5eeb5e0931ca2e0729ebc16d,5e53ab77265dcf3af7fedf02,5eeb7657d655892db4beeba8,,,,,,,,,,,,,,,,,,
12,,disc,12,243199,0.0-2.0-3.0-0.0,f078aa2862041786868ef9f2ad23336df49386eb98fe8259951830bdf7c3dbfd,5e53ab77265dcf3af7fedf02,"[52, 164, 254, 182, 102, 180, 30, 1, 2, 34, 81, 239, 102, 57, 59, 204, 224, 48, 20, 165, 17, 235, 254, 116, 41, 240, 114, 193, 108, 150, 37, 23]",True,5eeb5e0931ca2e0729ebc16d,5e53ab77265dcf3af7fedf02,5eeb7657d655892db4beeba8,1.0,5422.865000000456,w,61.72839506172839,q,disc_practice_conf,0.0,,,,0.359071203964536,5065.239999996265,,,,,,
13,,html-keyboard-response,13,244709,0.0-2.0-3.0-1.0,f078aa2862041786868ef9f2ad23336df49386eb98fe8259951830bdf7c3dbfd,5e53ab77265dcf3af7fedf02,"[52, 164, 254, 182, 102, 180, 30, 1, 2, 34, 81, 239, 102, 57, 59, 204, 224, 48, 20, 165, 17, 235, 254, 116, 41, 240, 114, 193, 108, 150, 37, 23]",True,5eeb5e0931ca2e0729ebc16d,5e53ab77265dcf3af7fedf02,5eeb7657d655892db4beeba8,,,,,,,,,"<div style=""width:150px;height:56px;border:0px;font-size:30px;text-align:center"">wrong.</div>",,,,,,,,,
14,,disc,14,250981,0.0-2.0-3.0-0.1,f078aa2862041786868ef9f2ad23336df49386eb98fe8259951830bdf7c3dbfd,5e53ab77265dcf3af7fedf02,"[52, 164, 254, 182, 102, 180, 30, 1, 2, 34, 81, 239, 102, 57, 59, 204, 224, 48, 20, 165, 17, 235, 254, 116, 41, 240, 114, 193, 108, 150, 37, 23]",True,5eeb5e0931ca2e0729ebc16d,5e53ab77265dcf3af7fedf02,5eeb7657d655892db4beeba8,2.0,3111.0350000089966,w,68.58710562414265,w,disc_practice_conf,1.0,,,,0.060087535920765,1944.969999982277,,,,,,
15,,html-keyboard-response,15,251984,0.0-2.0-3.0-1.1,f078aa2862041786868ef9f2ad23336df49386eb98fe8259951830bdf7c3dbfd,5e53ab77265dcf3af7fedf02,"[52, 164, 254, 182, 102, 180, 30, 1, 2, 34, 81, 239, 102, 57, 59, 204, 224, 48, 20, 165, 17, 235, 254, 116, 41, 240, 114, 193, 108, 150, 37, 23]",True,5eeb5e0931ca2e0729ebc16d,5e53ab77265dcf3af7fedf02,5eeb7657d655892db4beeba8,,,,,,,,,"<div style=""width:150px;height:56px;font-size:30px;text-align:center;"">correct!</div>",,,,,,,,,
16,,disc,16,256548,0.0-2.0-3.0-0.2,f078aa2862041786868ef9f2ad23336df49386eb98fe8259951830bdf7c3dbfd,5e53ab77265dcf3af7fedf02,"[52, 164, 254, 182, 102, 180, 30, 1, 2, 34, 81, 239, 102, 57, 59, 204, 224, 48, 20, 165, 17, 235, 254, 116, 41, 240, 114, 193, 108, 150, 37, 23]",True,5eeb5e0931ca2e0729ebc16d,5e53ab77265dcf3af7fedf02,5eeb7657d655892db4beeba8,2.0,1011.51499999105,w,68.58710562414265,w,disc_practice_conf,1.0,,,,0.5292021243661751,2338.034999993397,,,,,,
17,,html-keyboard-response,17,257552,0.0-2.0-3.0-1.2,f078aa2862041786868ef9f2ad23336df49386eb98fe8259951830bdf7c3dbfd,5e53ab77265dcf3af7fedf02,"[52, 164, 254, 182, 102, 180, 30, 1, 2, 34, 81, 239, 102, 57, 59, 204, 224, 48, 20, 165, 17, 235, 254, 116, 41, 240, 114, 193, 108, 150, 37, 23]",True,5eeb5e0931ca2e0729ebc16d,5e53ab77265dcf3af7fedf02,5eeb7657d655892db4beeba8,,,,,,,,,"<div style=""width:150px;height:56px;font-size:30px;text-align:center;"">correct!</div>",,,,,,,,,
18,,disc,18,261781,0.0-2.0-3.0-0.3,f078aa2862041786868ef9f2ad23336df49386eb98fe8259951830bdf7c3dbfd,5e53ab77265dcf3af7fedf02,"[52, 164, 254, 182, 102, 180, 30, 1, 2, 34, 81, 239, 102, 57, 59, 204, 224, 48, 20, 165, 17, 235, 254, 116, 41, 240, 114, 193, 108, 150, 37, 23]",True,5eeb5e0931ca2e0729ebc16d,5e53ab77265dcf3af7fedf02,5eeb7657d655892db4beeba8,1.0,1099.225000012666,w,68.58710562414265,q,disc_practice_conf,0.0,,,,1.0,1921.0299999976996,,,,,,
19,,html-keyboard-response,19,263284,0.0-2.0-3.0-1.3,f078aa2862041786868ef9f2ad23336df49386eb98fe8259951830bdf7c3dbfd,5e53ab77265dcf3af7fedf02,"[52, 164, 254, 182, 102, 180, 30, 1, 2, 34, 81, 239, 102, 57, 59, 204, 224, 48, 20, 165, 17, 235, 254, 116, 41, 240, 114, 193, 108, 150, 37, 23]",True,5eeb5e0931ca2e0729ebc16d,5e53ab77265dcf3af7fedf02,5eeb7657d655892db4beeba8,,,,,,,,,"<div style=""width:150px;height:56px;border:0px;font-size:30px;text-align:center"">wrong.</div>",,,,,,,,,
20,,survey-multi-choice,20,308826,0.0-2.0-4.0,f078aa2862041786868ef9f2ad23336df49386eb98fe8259951830bdf7c3dbfd,5e53ab77265dcf3af7fedf02,"[52, 164, 254, 182, 102, 180, 30, 1, 2, 34, 81, 239, 102, 57, 59, 204, 224, 48, 20, 165, 17, 235, 254, 116, 41, 240, 114, 193, 108, 150, 37, 23]",True,5eeb5e0931ca2e0729ebc16d,5e53ab77265dcf3af7fedf02,5eeb7657d655892db4beeba8,,,,,,,,45537.21500001848,,,,,"{""multichoice_discrimination"":""1. very confident that the two letters were O and X""}",[0],,,,
21,,p5Text,21,322279,0.0-2.0-5.0,f078aa2862041786868ef9f2ad23336df49386eb98fe8259951830bdf7c3dbfd,5e53ab77265dcf3af7fedf02,"[52, 164, 254, 182, 102, 180, 30, 1, 2, 34, 81, 239, 102, 57, 59, 204, 224, 48, 20, 165, 17, 235, 254, 116, 41, 240, 114, 193, 108, 150, 37, 23]",True,5eeb5e0931ca2e0729ebc16d,5e53ab77265dcf3af7fedf02,5eeb7657d655892db4beeba8,,,,,,,,,,,,,,,,,,
22,,disc,22,377176,0.0-2.0-6.0-0.0,f078aa2862041786868ef9f2ad23336df49386eb98fe8259951830bdf7c3dbfd,5e53ab77265dcf3af7fedf02,"[52, 164, 254, 182, 102, 180, 30, 1, 2, 34, 81, 239, 102, 57, 59, 204, 224, 48, 20, 165, 17, 235, 254, 116, 41, 240, 114, 193, 108, 150, 37, 23]",True,5eeb5e0931ca2e0729ebc16d,5e53ab77265dcf3af7fedf02,5eeb7657d655892db4beeba8,1.0,3577.4450000026263,q,76.20789513793628,q,disc,1.0,,,,1.0,50102.35499998089,,,,,,
23,,disc,23,437386,0.0-2.0-6.0-0.1,f078aa2862041786868ef9f2ad23336df49386eb98fe8259951830bdf7c3dbfd,5e53ab77265dcf3af7fedf02,"[52, 164, 254, 182, 102, 180, 30, 1, 2, 34, 81, 239, 102, 57, 59, 204, 224, 48, 20, 165, 17, 235, 254, 116, 41, 240, 114, 193, 108, 150, 37, 23]",True,5eeb5e0931ca2e0729ebc16d,5e53ab77265dcf3af7fedf02,5eeb7657d655892db4beeba8,2.0,2380.6899999908637,w,76.20789513793628,w,disc,1.0,,,,1.0,56610.77500000829,,,,,,
24,,disc,24,473484,0.0-2.0-6.0-0.2,f078aa2862041786868ef9f2ad23336df49386eb98fe8259951830bdf7c3dbfd,5e53ab77265dcf3af7fedf02,"[52, 164, 254, 182, 102, 180, 30, 1, 2, 34, 81, 239, 102, 57, 59, 204, 224, 48, 20, 165, 17, 235, 254, 116, 41, 240, 114, 193, 108, 150, 37, 23]",True,5eeb5e0931ca2e0729ebc16d,5e53ab77265dcf3af7fedf02,5eeb7657d655892db4beeba8,1.0,1968.605000001844,q,76.20789513793628,q,disc,1.0,,,,1.0,32907.949999993434,,,,,,
25,,disc,25,490783,0.0-2.0-6.0-0.3,f078aa2862041786868ef9f2ad23336df49386eb98fe8259951830bdf7c3dbfd,5e53ab77265dcf3af7fedf02,"[52, 164, 254, 182, 102, 180, 30, 1, 2, 34, 81, 239, 102, 57, 59, 204, 224, 48, 20, 165, 17, 235, 254, 116, 41, 240, 114, 193, 108, 150, 37, 23]",True,5eeb5e0931ca2e0729ebc16d,5e53ab77265dcf3af7fedf02,5eeb7657d655892db4beeba8,2.0,2485.1999999955297,w,68.58710562414265,w,disc,1.0,,,,0.0,13591.680000012275,,,,,,
26,,disc,26,500649,0.0-2.0-6.0-0.4,f078aa2862041786868ef9f2ad23336df49386eb98fe8259951830bdf7c3dbfd,5e53ab77265dcf3af7fedf02,"[52, 164, 254, 182, 102, 180, 30, 1, 2, 34, 81, 239, 102, 57, 59, 204, 224, 48, 20, 165, 17, 235, 254, 116, 41, 240, 114, 193, 108, 150, 37, 23]",True,5eeb5e0931ca2e0729ebc16d,5e53ab77265dcf3af7fedf02,5eeb7657d655892db4beeba8,2.0,1987.4600000039209,w,68.58710562414265,w,disc,1.0,,,,0.564265999535399,6663.354999996955,,,,,,
27,,disc,27,507485,0.0-2.0-6.0-0.5,f078aa2862041786868ef9f2ad23336df49386eb98fe8259951830bdf7c3dbfd,5e53ab77265dcf3af7fedf02,"[52, 164, 254, 182, 102, 180, 30, 1, 2, 34, 81, 239, 102, 57, 59, 204, 224, 48, 20, 165, 17, 235, 254, 116, 41, 240, 114, 193, 108, 150, 37, 23]",True,5eeb5e0931ca2e0729ebc16d,5e53ab77265dcf3af7fedf02,5eeb7657d655892db4beeba8,1.0,1469.5650000066962,w,68.58710562414265,q,disc,0.0,,,,0.08235299805778,4159.145000012359,,,,,,
28,,disc,28,514967,0.0-2.0-6.0-0.6,f078aa2862041786868ef9f2ad23336df49386eb98fe8259951830bdf7c3dbfd,5e53ab77265dcf3af7fedf02,"[52, 164, 254, 182, 102, 180, 30, 1, 2, 34, 81, 239, 102, 57, 59, 204, 224, 48, 20, 165, 17, 235, 254, 116, 41, 240, 114, 193, 108, 150, 37, 23]",True,5eeb5e0931ca2e0729ebc16d,5e53ab77265dcf3af7fedf02,5eeb7657d655892db4beeba8,1.0,1187.355000001844,q,76.20789513793628,q,disc,1.0,,,,0.648279139429456,5083.084999991115,,,,,,
29,,disc,29,536668,0.0-2.0-6.0-0.7,f078aa2862041786868ef9f2ad23336df49386eb98fe8259951830bdf7c3dbfd,5e53ab77265dcf3af7fedf02,"[52, 164, 254, 182, 102, 180, 30, 1, 2, 34, 81, 239, 102, 57, 59, 204, 224, 48, 20, 165, 17, 235, 254, 116, 41, 240, 114, 193, 108, 150, 37, 23]",True,5eeb5e0931ca2e0729ebc16d,5e53ab77265dcf3af7fedf02,5eeb7657d655892db4beeba8,2.0,13912.339999980759,w,76.20789513793628,w,disc,1.0,,,,1.0,6564.800000021933,,,,,,
30,,disc,30,543502,0.0-2.0-6.0-0.8,f078aa2862041786868ef9f2ad23336df49386eb98fe8259951830bdf7c3dbfd,5e53ab77265dcf3af7fedf02,"[52, 164, 254, 182, 102, 180, 30, 1, 2, 34, 81, 239, 102, 57, 59, 204, 224, 48, 20, 165, 17, 235, 254, 116, 41, 240, 114, 193, 108, 150, 37, 23]",True,5eeb5e0931ca2e0729ebc16d,5e53ab77265dcf3af7fedf02,5eeb7657d655892db4beeba8,2.0,1336.814999987837,q,76.20789513793628,w,disc,0.0,,,,0.568864851681663,4277.215000009164,,,,,,
31,,disc,31,553467,0.0-2.0-6.0-0.9,f078aa2862041786868ef9f2ad23336df49386eb98fe8259951830bdf7c3dbfd,5e53ab77265dcf3af7fedf02,"[52, 164, 254, 182, 102, 180, 30, 1, 2, 34, 81, 239, 102, 57, 59, 204, 224, 48, 20, 165, 17, 235, 254, 116, 41, 240, 114, 193, 108, 150, 37, 23]",True,5eeb5e0931ca2e0729ebc16d,5e53ab77265dcf3af7fedf02,5eeb7657d655892db4beeba8,1.0,1452.065000019502,q,84.67543904215141,q,disc,1.0,,,,0.6941816824637831,7304.470000002766,,,,,,
32,,disc,32,560783,0.0-2.0-6.0-0.10,f078aa2862041786868ef9f2ad23336df49386eb98fe8259951830bdf7c3dbfd,5e53ab77265dcf3af7fedf02,"[52, 164, 254, 182, 102, 180, 30, 1, 2, 34, 81, 239, 102, 57, 59, 204, 224, 48, 20, 165, 17, 235, 254, 116, 41, 240, 114, 193, 108, 150, 37, 23]",True,5eeb5e0931ca2e0729ebc16d,5e53ab77265dcf3af7fedf02,5eeb7657d655892db4beeba8,1.0,989.819999987958,w,84.67543904215141,q,disc,0.0,,,,1.0,5110.065000015311,,,,,,
33,,disc,33,565216,0.0-2.0-6.0-0.11,f078aa2862041786868ef9f2ad23336df49386eb98fe8259951830bdf7c3dbfd,5e53ab77265dcf3af7fedf02,"[52, 164, 254, 182, 102, 180, 30, 1, 2, 34, 81, 239, 102, 57, 59, 204, 224, 48, 20, 165, 17, 235, 254, 116, 41, 240, 114, 193, 108, 150, 37, 23]",True,5eeb5e0931ca2e0729ebc16d,5e53ab77265dcf3af7fedf02,5eeb7657d655892db4beeba8,2.0,1118.579999980284,w,94.083821157946,w,disc,1.0,,,,0.9909954629456881,2094.6850000182167,,,,,,
34,,disc,34,574365,0.0-2.0-6.0-0.12,f078aa2862041786868ef9f2ad23336df49386eb98fe8259951830bdf7c3dbfd,5e53ab77265dcf3af7fedf02,"[52, 164, 254, 182, 102, 180, 30, 1, 2, 34, 81, 239, 102, 57, 59, 204, 224, 48, 20, 165, 17, 235, 254, 116, 41, 240, 114, 193, 108, 150, 37, 23]",True,5eeb5e0931ca2e0729ebc16d,5e53ab77265dcf3af7fedf02,5eeb7657d655892db4beeba8,2.0,4284.545000002254,q,94.083821157946,w,disc,0.0,,,,0.7834376916382191,3646.435000002384,,,,,,
35,,disc,35,590248,0.0-2.0-6.0-0.13,f078aa2862041786868ef9f2ad23336df49386eb98fe8259951830bdf7c3dbfd,5e53ab77265dcf3af7fedf02,"[52, 164, 254, 182, 102, 180, 30, 1, 2, 34, 81, 239, 102, 57, 59, 204, 224, 48, 20, 165, 17, 235, 254, 116, 41, 240, 114, 193, 108, 150, 37, 23]",True,5eeb5e0931ca2e0729ebc16d,5e53ab77265dcf3af7fedf02,5eeb7657d655892db4beeba8,1.0,12693.909999972675,w,104.53757906438445,q,disc,0.0,,,,0.7377471536730441,1975.6600000255276,,,,,,
36,,disc,36,597064,0.0-2.0-6.0-0.14,f078aa2862041786868ef9f2ad23336df49386eb98fe8259951830bdf7c3dbfd,5e53ab77265dcf3af7fedf02,"[52, 164, 254, 182, 102, 180, 30, 1, 2, 34, 81, 239, 102, 57, 59, 204, 224, 48, 20, 165, 17, 235, 254, 116, 41, 240, 114, 193, 108, 150, 37, 23]",True,5eeb5e0931ca2e0729ebc16d,5e53ab77265dcf3af7fedf02,5eeb7657d655892db4beeba8,2.0,3851.8549999862444,w,116.15286562709383,w,disc,1.0,,,,0.660584249637697,1742.9100000008475,,,,,,
37,,disc,37,602148,0.0-2.0-6.0-0.15,f078aa2862041786868ef9f2ad23336df49386eb98fe8259951830bdf7c3dbfd,5e53ab77265dcf3af7fedf02,"[52, 164, 254, 182, 102, 180, 30, 1, 2, 34, 81, 239, 102, 57, 59, 204, 224, 48, 20, 165, 17, 235, 254, 116, 41, 240, 114, 193, 108, 150, 37, 23]",True,5eeb5e0931ca2e0729ebc16d,5e53ab77265dcf3af7fedf02,5eeb7657d655892db4beeba8,1.0,2144.125000020722,w,116.15286562709383,q,disc,0.0,,,,0.0,1732.5549999950454,,,,,,
38,,disc,38,607280,0.0-2.0-6.0-0.16,f078aa2862041786868ef9f2ad23336df49386eb98fe8259951830bdf7c3dbfd,5e53ab77265dcf3af7fedf02,"[52, 164, 254, 182, 102, 180, 30, 1, 2, 34, 81, 239, 102, 57, 59, 204, 224, 48, 20, 165, 17, 235, 254, 116, 41, 240, 114, 193, 108, 150, 37, 23]",True,5eeb5e0931ca2e0729ebc16d,5e53ab77265dcf3af7fedf02,5eeb7657d655892db4beeba8,1.0,1583.954999980051,q,129.05873958565982,q,disc,1.0,,,,0.15374461709648402,2326.7500000074506,,,,,,
39,,disc,39,624148,0.0-2.0-6.0-0.17,f078aa2862041786868ef9f2ad23336df49386eb98fe8259951830bdf7c3dbfd,5e53ab77265dcf3af7fedf02,"[52, 164, 254, 182, 102, 180, 30, 1, 2, 34, 81, 239, 102, 57, 59, 204, 224, 48, 20, 165, 17, 235, 254, 116, 41, 240, 114, 193, 108, 150, 37, 23]",True,5eeb5e0931ca2e0729ebc16d,5e53ab77265dcf3af7fedf02,5eeb7657d655892db4beeba8,2.0,12512.765000021318,q,129.05873958565982,w,disc,0.0,,,,0.48254938419380605,3138.829999981681,,,,,,
40,,p5Text,40,659714,0.0-2.0-7.0,f078aa2862041786868ef9f2ad23336df49386eb98fe8259951830bdf7c3dbfd,5e53ab77265dcf3af7fedf02,"[52, 164, 254, 182, 102, 180, 30, 1, 2, 34, 81, 239, 102, 57, 59, 204, 224, 48, 20, 165, 17, 235, 254, 116, 41, 240, 114, 193, 108, 150, 37, 23]",True,5eeb5e0931ca2e0729ebc16d,5e53ab77265dcf3af7fedf02,5eeb7657d655892db4beeba8,,,,,,,,,,,,,,,,,,
41,,p5Text,41,681659,0.0-2.0-8.0,f078aa2862041786868ef9f2ad23336df49386eb98fe8259951830bdf7c3dbfd,5e53ab77265dcf3af7fedf02,"[52, 164, 254, 182, 102, 180, 30, 1, 2, 34, 81, 239, 102, 57, 59, 204, 224, 48, 20, 165, 17, 235, 254, 116, 41, 240, 114, 193, 108, 150, 37, 23]",True,5eeb5e0931ca2e0729ebc16d,5e53ab77265dcf3af7fedf02,5eeb7657d655892db4beeba8,,,,,,,,,,,,,,,,,,
42,,disc,42,686625,0.0-2.0-9.0-0.0,f078aa2862041786868ef9f2ad23336df49386eb98fe8259951830bdf7c3dbfd,5e53ab77265dcf3af7fedf02,"[52, 164, 254, 182, 102, 180, 30, 1, 2, 34, 81, 239, 102, 57, 59, 204, 224, 48, 20, 165, 17, 235, 254, 116, 41, 240, 114, 193, 108, 150, 37, 23]",True,5eeb5e0931ca2e0729ebc16d,5e53ab77265dcf3af7fedf02,5eeb7657d655892db4beeba8,2.0,2061.4800000039395,w,143.398599539622,w,disc,1.0,,,,0.5498188876929441,1685.3750000009313,,,,,,
43,,disc,43,691058,0.0-2.0-9.0-0.1,f078aa2862041786868ef9f2ad23336df49386eb98fe8259951830bdf7c3dbfd,5e53ab77265dcf3af7fedf02,"[52, 164, 254, 182, 102, 180, 30, 1, 2, 34, 81, 239, 102, 57, 59, 204, 224, 48, 20, 165, 17, 235, 254, 116, 41, 240, 114, 193, 108, 150, 37, 23]",True,5eeb5e0931ca2e0729ebc16d,5e53ab77265dcf3af7fedf02,5eeb7657d655892db4beeba8,1.0,1519.2300000053365,w,143.398599539622,q,disc,0.0,,,,0.655876178006773,1705.5450000043493,,,,,,
44,,disc,44,695825,0.0-2.0-9.0-0.2,f078aa2862041786868ef9f2ad23336df49386eb98fe8259951830bdf7c3dbfd,5e53ab77265dcf3af7fedf02,"[52, 164, 254, 182, 102, 180, 30, 1, 2, 34, 81, 239, 102, 57, 59, 204, 224, 48, 20, 165, 17, 235, 254, 116, 41, 240, 114, 193, 108, 150, 37, 23]",True,5eeb5e0931ca2e0729ebc16d,5e53ab77265dcf3af7fedf02,5eeb7657d655892db4beeba8,2.0,1516.0849999811035,w,159.3317772662467,w,disc,1.0,,,,1.0,2038.9600000053179,,,,,,
45,,disc,45,710341,0.0-2.0-9.0-0.3,f078aa2862041786868ef9f2ad23336df49386eb98fe8259951830bdf7c3dbfd,5e53ab77265dcf3af7fedf02,"[52, 164, 254, 182, 102, 180, 30, 1, 2, 34, 81, 239, 102, 57, 59, 204, 224, 48, 20, 165, 17, 235, 254, 116, 41, 240, 114, 193, 108, 150, 37, 23]",True,5eeb5e0931ca2e0729ebc16d,5e53ab77265dcf3af7fedf02,5eeb7657d655892db4beeba8,1.0,753.0099999858066,w,159.3317772662467,q,disc,0.0,,,,0.343192399398537,12546.72000001301,,,,,,
46,,disc,46,770738,0.0-2.0-9.0-0.4,f078aa2862041786868ef9f2ad23336df49386eb98fe8259951830bdf7c3dbfd,5e53ab77265dcf3af7fedf02,"[52, 164, 254, 182, 102, 180, 30, 1, 2, 34, 81, 239, 102, 57, 59, 204, 224, 48, 20, 165, 17, 235, 254, 116, 41, 240, 114, 193, 108, 150, 37, 23]",True,5eeb5e0931ca2e0729ebc16d,5e53ab77265dcf3af7fedf02,5eeb7657d655892db4beeba8,1.0,56916.3750000007,q,177.03530807360744,q,disc,1.0,,,,0.5904812388603631,2260.3799999924377,,,,,,
47,,disc,47,781307,0.0-2.0-9.0-0.5,f078aa2862041786868ef9f2ad23336df49386eb98fe8259951830bdf7c3dbfd,5e53ab77265dcf3af7fedf02,"[52, 164, 254, 182, 102, 180, 30, 1, 2, 34, 81, 239, 102, 57, 59, 204, 224, 48, 20, 165, 17, 235, 254, 116, 41, 240, 114, 193, 108, 150, 37, 23]",True,5eeb5e0931ca2e0729ebc16d,5e53ab77265dcf3af7fedf02,5eeb7657d655892db4beeba8,2.0,1518.4949999966193,w,177.03530807360744,w,disc,1.0,,,,0.9339729946231771,7830.184999998892,,,,,,
48,,disc,48,786990,0.0-2.0-9.0-0.6,f078aa2862041786868ef9f2ad23336df49386eb98fe8259951830bdf7c3dbfd,5e53ab77265dcf3af7fedf02,"[52, 164, 254, 182, 102, 180, 30, 1, 2, 34, 81, 239, 102, 57, 59, 204, 224, 48, 20, 165, 17, 235, 254, 116, 41, 240, 114, 193, 108, 150, 37, 23]",True,5eeb5e0931ca2e0729ebc16d,5e53ab77265dcf3af7fedf02,5eeb7657d655892db4beeba8,2.0,1317.8100000077393,q,177.03530807360744,w,disc,0.0,,,,0.920306095788284,3143.889999977546,,,,,,
49,,disc,49,792157,0.0-2.0-9.0-0.7,f078aa2862041786868ef9f2ad23336df49386eb98fe8259951830bdf7c3dbfd,5e53ab77265dcf3af7fedf02,"[52, 164, 254, 182, 102, 180, 30, 1, 2, 34, 81, 239, 102, 57, 59, 204, 224, 48, 20, 165, 17, 235, 254, 116, 41, 240, 114, 193, 108, 150, 37, 23]",True,5eeb5e0931ca2e0729ebc16d,5e53ab77265dcf3af7fedf02,5eeb7657d655892db4beeba8,1.0,1737.6900000090245,w,196.7058978595638,q,disc,0.0,,,,0.44960479917831303,2212.0449999929406,,,,,,
50,,disc,50,798024,0.0-2.0-9.0-0.8,f078aa2862041786868ef9f2ad23336df49386eb98fe8259951830bdf7c3dbfd,5e53ab77265dcf3af7fedf02,"[52, 164, 254, 182, 102, 180, 30, 1, 2, 34, 81, 239, 102, 57, 59, 204, 224, 48, 20, 165, 17, 235, 254, 116, 41, 240, 114, 193, 108, 150, 37, 23]",True,5eeb5e0931ca2e0729ebc16d,5e53ab77265dcf3af7fedf02,5eeb7657d655892db4beeba8,2.0,2073.995000013383,w,218.56210873284866,w,disc,1.0,,,,0.6708859347100851,2582.219999982044,,,,,,
51,,disc,51,808673,0.0-2.0-9.0-0.9,f078aa2862041786868ef9f2ad23336df49386eb98fe8259951830bdf7c3dbfd,5e53ab77265dcf3af7fedf02,"[52, 164, 254, 182, 102, 180, 30, 1, 2, 34, 81, 239, 102, 57, 59, 204, 224, 48, 20, 165, 17, 235, 254, 116, 41, 240, 114, 193, 108, 150, 37, 23]",True,5eeb5e0931ca2e0729ebc16d,5e53ab77265dcf3af7fedf02,5eeb7657d655892db4beeba8,1.0,3848.6099999863654,q,218.56210873284866,q,disc,1.0,,,,0.529924750447879,5584.150000009686,,,,,,
52,,disc,52,813589,0.0-2.0-9.0-0.10,f078aa2862041786868ef9f2ad23336df49386eb98fe8259951830bdf7c3dbfd,5e53ab77265dcf3af7fedf02,"[52, 164, 254, 182, 102, 180, 30, 1, 2, 34, 81, 239, 102, 57, 59, 204, 224, 48, 20, 165, 17, 235, 254, 116, 41, 240, 114, 193, 108, 150, 37, 23]",True,5eeb5e0931ca2e0729ebc16d,5e53ab77265dcf3af7fedf02,5eeb7657d655892db4beeba8,1.0,1908.0050000047777,w,218.56210873284866,q,disc,0.0,,,,0.707510203646272,1786.6849999991246,,,,,,
53,,disc,53,820338,0.0-2.0-9.0-0.11,f078aa2862041786868ef9f2ad23336df49386eb98fe8259951830bdf7c3dbfd,5e53ab77265dcf3af7fedf02,"[52, 164, 254, 182, 102, 180, 30, 1, 2, 34, 81, 239, 102, 57, 59, 204, 224, 48, 20, 165, 17, 235, 254, 116, 41, 240, 114, 193, 108, 150, 37, 23]",True,5eeb5e0931ca2e0729ebc16d,5e53ab77265dcf3af7fedf02,5eeb7657d655892db4beeba8,2.0,1423.9249999809545,w,242.84678748094294,w,disc,1.0,,,,0.0,4114.715000003343,,,,,,
54,,disc,54,830023,0.0-2.0-9.0-0.12,f078aa2862041786868ef9f2ad23336df49386eb98fe8259951830bdf7c3dbfd,5e53ab77265dcf3af7fedf02,"[52, 164, 254, 182, 102, 180, 30, 1, 2, 34, 81, 239, 102, 57, 59, 204, 224, 48, 20, 165, 17, 235, 254, 116, 41, 240, 114, 193, 108, 150, 37, 23]",True,5eeb5e0931ca2e0729ebc16d,5e53ab77265dcf3af7fedf02,5eeb7657d655892db4beeba8,1.0,1827.6999999943655,q,242.84678748094294,q,disc,1.0,,,,0.12805860886720902,6636.245000001509,,,,,,
55,,disc,55,835770,0.0-2.0-9.0-0.13,f078aa2862041786868ef9f2ad23336df49386eb98fe8259951830bdf7c3dbfd,5e53ab77265dcf3af7fedf02,"[52, 164, 254, 182, 102, 180, 30, 1, 2, 34, 81, 239, 102, 57, 59, 204, 224, 48, 20, 165, 17, 235, 254, 116, 41, 240, 114, 193, 108, 150, 37, 23]",True,5eeb5e0931ca2e0729ebc16d,5e53ab77265dcf3af7fedf02,5eeb7657d655892db4beeba8,2.0,2239.0550000127405,q,242.84678748094294,w,disc,0.0,,,,0.5863044415840021,2295.65499999444,,,,,,
56,,disc,56,843303,0.0-2.0-9.0-0.14,f078aa2862041786868ef9f2ad23336df49386eb98fe8259951830bdf7c3dbfd,5e53ab77265dcf3af7fedf02,"[52, 164, 254, 182, 102, 180, 30, 1, 2, 34, 81, 239, 102, 57, 59, 204, 224, 48, 20, 165, 17, 235, 254, 116, 41, 240, 114, 193, 108, 150, 37, 23]",True,5eeb5e0931ca2e0729ebc16d,5e53ab77265dcf3af7fedf02,5eeb7657d655892db4beeba8,1.0,4054.3349999934435,w,269.82976386771435,q,disc,0.0,,,,0.44154371686842203,2268.6150000081398,,,,,,
57,,disc,57,849603,0.0-2.0-9.0-0.15,f078aa2862041786868ef9f2ad23336df49386eb98fe8259951830bdf7c3dbfd,5e53ab77265dcf3af7fedf02,"[52, 164, 254, 182, 102, 180, 30, 1, 2, 34, 81, 239, 102, 57, 59, 204, 224, 48, 20, 165, 17, 235, 254, 116, 41, 240, 114, 193, 108, 150, 37, 23]",True,5eeb5e0931ca2e0729ebc16d,5e53ab77265dcf3af7fedf02,5eeb7657d655892db4beeba8,2.0,2286.4750000007916,w,299.8108487419048,w,disc,1.0,,,,1.0,2799.334999988787,,,,,,
58,,disc,58,856003,0.0-2.0-9.0-0.16,f078aa2862041786868ef9f2ad23336df49386eb98fe8259951830bdf7c3dbfd,5e53ab77265dcf3af7fedf02,"[52, 164, 254, 182, 102, 180, 30, 1, 2, 34, 81, 239, 102, 57, 59, 204, 224, 48, 20, 165, 17, 235, 254, 116, 41, 240, 114, 193, 108, 150, 37, 23]",True,5eeb5e0931ca2e0729ebc16d,5e53ab77265dcf3af7fedf02,5eeb7657d655892db4beeba8,1.0,1286.1199999751989,q,299.8108487419048,q,disc,1.0,,,,0.5713961767840371,3905.0850000057835,,,,,,
59,,disc,59,861586,0.0-2.0-9.0-0.17,f078aa2862041786868ef9f2ad23336df49386eb98fe8259951830bdf7c3dbfd,5e53ab77265dcf3af7fedf02,"[52, 164, 254, 182, 102, 180, 30, 1, 2, 34, 81, 239, 102, 57, 59, 204, 224, 48, 20, 165, 17, 235, 254, 116, 41, 240, 114, 193, 108, 150, 37, 23]",True,5eeb5e0931ca2e0729ebc16d,5e53ab77265dcf3af7fedf02,5eeb7657d655892db4beeba8,2.0,1486.0099999932572,w,299.8108487419048,w,disc,1.0,,,,0.302863870772276,2875.9699999936856,,,,,,
60,,p5Text,60,881737,0.0-2.0-10.0,f078aa2862041786868ef9f2ad23336df49386eb98fe8259951830bdf7c3dbfd,5e53ab77265dcf3af7fedf02,"[52, 164, 254, 182, 102, 180, 30, 1, 2, 34, 81, 239, 102, 57, 59, 204, 224, 48, 20, 165, 17, 235, 254, 116, 41, 240, 114, 193, 108, 150, 37, 23]",True,5eeb5e0931ca2e0729ebc16d,5e53ab77265dcf3af7fedf02,5eeb7657d655892db4beeba8,,,,,,,,,,,,,,,,,,
61,,call-function,61,881739,0.0-2.0-11.0,f078aa2862041786868ef9f2ad23336df49386eb98fe8259951830bdf7c3dbfd,5e53ab77265dcf3af7fedf02,"[52, 164, 254, 182, 102, 180, 30, 1, 2, 34, 81, 239, 102, 57, 59, 204, 224, 48, 20, 165, 17, 235, 254, 116, 41, 240, 114, 193, 108, 150, 37, 23]",True,5eeb5e0931ca2e0729ebc16d,5e53ab77265dcf3af7fedf02,5eeb7657d655892db4beeba8,,,,,,,,,,,,,,,,,,
62,,p5Text,62,901142,0.0-3.0-0.0,f078aa2862041786868ef9f2ad23336df49386eb98fe8259951830bdf7c3dbfd,5e53ab77265dcf3af7fedf02,"[52, 164, 254, 182, 102, 180, 30, 1, 2, 34, 81, 239, 102, 57, 59, 204, 224, 48, 20, 165, 17, 235, 254, 116, 41, 240, 114, 193, 108, 150, 37, 23]",True,5eeb5e0931ca2e0729ebc16d,5e53ab77265dcf3af7fedf02,5eeb7657d655892db4beeba8,,,,,,,,,,,,,,,,,,
63,,p5vs_yn,63,906502,0.0-3.0-1.0-0.0-0.0,f078aa2862041786868ef9f2ad23336df49386eb98fe8259951830bdf7c3dbfd,5e53ab77265dcf3af7fedf02,"[52, 164, 254, 182, 102, 180, 30, 1, 2, 34, 81, 239, 102, 57, 59, 204, 224, 48, 20, 165, 17, 235, 254, 116, 41, 240, 114, 193, 108, 150, 37, 23]",True,5eeb5e0931ca2e0729ebc16d,5e53ab77265dcf3af7fedf02,5eeb7657d655892db4beeba8,,4838.615000015125,f,,f,practice_Q_in_O,1.0,,,,,,,,3.0,0.0,"[0.30000000000000004, 0.30000000000000004]","[[0.099999999999999, 0.30000000000000004], [-0.30000000000000004, 0.30000000000000004], [0.099999999999999, 0.099999999999999]]"
64,,html-keyboard-response,64,907512,0.0-3.0-1.0-0.0-1.0,f078aa2862041786868ef9f2ad23336df49386eb98fe8259951830bdf7c3dbfd,5e53ab77265dcf3af7fedf02,"[52, 164, 254, 182, 102, 180, 30, 1, 2, 34, 81, 239, 102, 57, 59, 204, 224, 48, 20, 165, 17, 235, 254, 116, 41, 240, 114, 193, 108, 150, 37, 23]",True,5eeb5e0931ca2e0729ebc16d,5e53ab77265dcf3af7fedf02,5eeb7657d655892db4beeba8,,,,,,,,,"<div style=""width:150px;height:56px;font-size:30px;text-align:center;"">correct!</div>",,,,,,,,,
65,,p5vs_yn,65,909767,0.0-3.0-1.0-0.0-0.1,f078aa2862041786868ef9f2ad23336df49386eb98fe8259951830bdf7c3dbfd,5e53ab77265dcf3af7fedf02,"[52, 164, 254, 182, 102, 180, 30, 1, 2, 34, 81, 239, 102, 57, 59, 204, 224, 48, 20, 165, 17, 235, 254, 116, 41, 240, 114, 193, 108, 150, 37, 23]",True,5eeb5e0931ca2e0729ebc16d,5e53ab77265dcf3af7fedf02,5eeb7657d655892db4beeba8,,1733.20000001695,j,,j,practice_Q_in_O,1.0,,,,,,,,3.0,1.0,"[0.30000000000000004, -0.099999999999999]","[[-0.099999999999999, 0.099999999999999], [0.30000000000000004, 0.30000000000000004], [0.099999999999999, 0.099999999999999]]"
66,,html-keyboard-response,66,910770,0.0-3.0-1.0-0.0-1.1,f078aa2862041786868ef9f2ad23336df49386eb98fe8259951830bdf7c3dbfd,5e53ab77265dcf3af7fedf02,"[52, 164, 254, 182, 102, 180, 30, 1, 2, 34, 81, 239, 102, 57, 59, 204, 224, 48, 20, 165, 17, 235, 254, 116, 41, 240, 114, 193, 108, 150, 37, 23]",True,5eeb5e0931ca2e0729ebc16d,5e53ab77265dcf3af7fedf02,5eeb7657d655892db4beeba8,,,,,,,,,"<div style=""width:150px;height:56px;font-size:30px;text-align:center;"">correct!</div>",,,,,,,,,
67,,p5vs_yn,67,912267,0.0-3.0-1.0-0.0-0.2,f078aa2862041786868ef9f2ad23336df49386eb98fe8259951830bdf7c3dbfd,5e53ab77265dcf3af7fedf02,"[52, 164, 254, 182, 102, 180, 30, 1, 2, 34, 81, 239, 102, 57, 59, 204, 224, 48, 20, 165, 17, 235, 254, 116, 41, 240, 114, 193, 108, 150, 37, 23]",True,5eeb5e0931ca2e0729ebc16d,5e53ab77265dcf3af7fedf02,5eeb7657d655892db4beeba8,,978.1350000121165,j,,j,practice_Q_in_O,1.0,,,,,,,,3.0,1.0,"[0.099999999999999, 0.099999999999999]","[[-0.099999999999999, -0.099999999999999], [-0.30000000000000004, 0.30000000000000004], [-0.30000000000000004, 0.099999999999999]]"
68,,html-keyboard-response,68,913270,0.0-3.0-1.0-0.0-1.2,f078aa2862041786868ef9f2ad23336df49386eb98fe8259951830bdf7c3dbfd,5e53ab77265dcf3af7fedf02,"[52, 164, 254, 182, 102, 180, 30, 1, 2, 34, 81, 239, 102, 57, 59, 204, 224, 48, 20, 165, 17, 235, 254, 116, 41, 240, 114, 193, 108, 150, 37, 23]",True,5eeb5e0931ca2e0729ebc16d,5e53ab77265dcf3af7fedf02,5eeb7657d655892db4beeba8,,,,,,,,,"<div style=""width:150px;height:56px;font-size:30px;text-align:center;"">correct!</div>",,,,,,,,,
69,,p5vs_yn,69,914565,0.0-3.0-1.0-0.0-0.3,f078aa2862041786868ef9f2ad23336df49386eb98fe8259951830bdf7c3dbfd,5e53ab77265dcf3af7fedf02,"[52, 164, 254, 182, 102, 180, 30, 1, 2, 34, 81, 239, 102, 57, 59, 204, 224, 48, 20, 165, 17, 235, 254, 116, 41, 240, 114, 193, 108, 150, 37, 23]",True,5eeb5e0931ca2e0729ebc16d,5e53ab77265dcf3af7fedf02,5eeb7657d655892db4beeba8,,784.9350000033155,f,,f,practice_Q_in_O,1.0,,,,,,,,3.0,0.0,"[0.099999999999999, 0.099999999999999]","[[0.099999999999999, -0.099999999999999], [-0.099999999999999, 0.30000000000000004], [-0.30000000000000004, 0.30000000000000004]]"
70,,html-keyboard-response,70,915568,0.0-3.0-1.0-0.0-1.3,f078aa2862041786868ef9f2ad23336df49386eb98fe8259951830bdf7c3dbfd,5e53ab77265dcf3af7fedf02,"[52, 164, 254, 182, 102, 180, 30, 1, 2, 34, 81, 239, 102, 57, 59, 204, 224, 48, 20, 165, 17, 235, 254, 116, 41, 240, 114, 193, 108, 150, 37, 23]",True,5eeb5e0931ca2e0729ebc16d,5e53ab77265dcf3af7fedf02,5eeb7657d655892db4beeba8,,,,,,,,,"<div style=""width:150px;height:56px;font-size:30px;text-align:center;"">correct!</div>",,,,,,,,,
71,,p5vs_yn,71,916817,0.0-3.0-2.0-0.0,f078aa2862041786868ef9f2ad23336df49386eb98fe8259951830bdf7c3dbfd,5e53ab77265dcf3af7fedf02,"[52, 164, 254, 182, 102, 180, 30, 1, 2, 34, 81, 239, 102, 57, 59, 204, 224, 48, 20, 165, 17, 235, 254, 116, 41, 240, 114, 193, 108, 150, 37, 23]",True,5eeb5e0931ca2e0729ebc16d,5e53ab77265dcf3af7fedf02,5eeb7657d655892db4beeba8,,741.4449999923818,f,,f,Q_in_O_vs,1.0,,,,,,,,2.0,0.0,"[0.30000000000000004, 0.099999999999999]","[[0.099999999999999, -0.099999999999999], [-0.099999999999999, 0.099999999999999]]"
72,,html-keyboard-response,72,917820,0.0-3.0-2.0-1.0,f078aa2862041786868ef9f2ad23336df49386eb98fe8259951830bdf7c3dbfd,5e53ab77265dcf3af7fedf02,"[52, 164, 254, 182, 102, 180, 30, 1, 2, 34, 81, 239, 102, 57, 59, 204, 224, 48, 20, 165, 17, 235, 254, 116, 41, 240, 114, 193, 108, 150, 37, 23]",True,5eeb5e0931ca2e0729ebc16d,5e53ab77265dcf3af7fedf02,5eeb7657d655892db4beeba8,,,,,,,,,"<div style=""width:150px;height:56px;font-size:30px;text-align:center;"">correct!</div>",,,,,,,,,
73,,p5vs_yn,73,918932,0.0-3.0-2.0-0.1,f078aa2862041786868ef9f2ad23336df49386eb98fe8259951830bdf7c3dbfd,5e53ab77265dcf3af7fedf02,"[52, 164, 254, 182, 102, 180, 30, 1, 2, 34, 81, 239, 102, 57, 59, 204, 224, 48, 20, 165, 17, 235, 254, 116, 41, 240, 114, 193, 108, 150, 37, 23]",True,5eeb5e0931ca2e0729ebc16d,5e53ab77265dcf3af7fedf02,5eeb7657d655892db4beeba8,,605.2049999998417,f,,f,Q_in_O_vs,1.0,,,,,,,,4.0,0.0,"[-0.33333333333333304, 0.16666666666666602]","[[0.16666666666666602, -0.16666666666666602], [-0.16666666666666602, 0], [0.16666666666666602, 0], [0.33333333333333304, -0.33333333333333304]]"
74,,html-keyboard-response,74,919935,0.0-3.0-2.0-1.1,f078aa2862041786868ef9f2ad23336df49386eb98fe8259951830bdf7c3dbfd,5e53ab77265dcf3af7fedf02,"[52, 164, 254, 182, 102, 180, 30, 1, 2, 34, 81, 239, 102, 57, 59, 204, 224, 48, 20, 165, 17, 235, 254, 116, 41, 240, 114, 193, 108, 150, 37, 23]",True,5eeb5e0931ca2e0729ebc16d,5e53ab77265dcf3af7fedf02,5eeb7657d655892db4beeba8,,,,,,,,,"<div style=""width:150px;height:56px;font-size:30px;text-align:center;"">correct!</div>",,,,,,,,,
75,,p5vs_yn,75,921099,0.0-3.0-2.0-0.2,f078aa2862041786868ef9f2ad23336df49386eb98fe8259951830bdf7c3dbfd,5e53ab77265dcf3af7fedf02,"[52, 164, 254, 182, 102, 180, 30, 1, 2, 34, 81, 239, 102, 57, 59, 204, 224, 48, 20, 165, 17, 235, 254, 116, 41, 240, 114, 193, 108, 150, 37, 23]",True,5eeb5e0931ca2e0729ebc16d,5e53ab77265dcf3af7fedf02,5eeb7657d655892db4beeba8,,647.7599999925587,j,,j,Q_in_O_vs,1.0,,,,,,,,1.0,1.0,"[0.30000000000000004, -0.099999999999999]","[[0.30000000000000004, -0.30000000000000004]]"
76,,html-keyboard-response,76,922102,0.0-3.0-2.0-1.2,f078aa2862041786868ef9f2ad23336df49386eb98fe8259951830bdf7c3dbfd,5e53ab77265dcf3af7fedf02,"[52, 164, 254, 182, 102, 180, 30, 1, 2, 34, 81, 239, 102, 57, 59, 204, 224, 48, 20, 165, 17, 235, 254, 116, 41, 240, 114, 193, 108, 150, 37, 23]",True,5eeb5e0931ca2e0729ebc16d,5e53ab77265dcf3af7fedf02,5eeb7657d655892db4beeba8,,,,,,,,,"<div style=""width:150px;height:56px;font-size:30px;text-align:center;"">correct!</div>",,,,,,,,,
77,,p5vs_yn,77,923348,0.0-3.0-2.0-0.3,f078aa2862041786868ef9f2ad23336df49386eb98fe8259951830bdf7c3dbfd,5e53ab77265dcf3af7fedf02,"[52, 164, 254, 182, 102, 180, 30, 1, 2, 34, 81, 239, 102, 57, 59, 204, 224, 48, 20, 165, 17, 235, 254, 116, 41, 240, 114, 193, 108, 150, 37, 23]",True,5eeb5e0931ca2e0729ebc16d,5e53ab77265dcf3af7fedf02,5eeb7657d655892db4beeba8,,736.1549999914132,j,,j,Q_in_O_vs,1.0,,,,,,,,4.0,1.0,"[0, 0.33333333333333304]","[[0, -0.33333333333333304], [0.16666666666666602, -0.16666666666666602], [0.33333333333333304, 0.16666666666666602], [0, -0.16666666666666602]]"
78,,html-keyboard-response,78,924352,0.0-3.0-2.0-1.3,f078aa2862041786868ef9f2ad23336df49386eb98fe8259951830bdf7c3dbfd,5e53ab77265dcf3af7fedf02,"[52, 164, 254, 182, 102, 180, 30, 1, 2, 34, 81, 239, 102, 57, 59, 204, 224, 48, 20, 165, 17, 235, 254, 116, 41, 240, 114, 193, 108, 150, 37, 23]",True,5eeb5e0931ca2e0729ebc16d,5e53ab77265dcf3af7fedf02,5eeb7657d655892db4beeba8,,,,,,,,,"<div style=""width:150px;height:56px;font-size:30px;text-align:center;"">correct!</div>",,,,,,,,,
79,,p5vs_yn,79,925832,0.0-3.0-2.0-0.4,f078aa2862041786868ef9f2ad23336df49386eb98fe8259951830bdf7c3dbfd,5e53ab77265dcf3af7fedf02,"[52, 164, 254, 182, 102, 180, 30, 1, 2, 34, 81, 239, 102, 57, 59, 204, 224, 48, 20, 165, 17, 235, 254, 116, 41, 240, 114, 193, 108, 150, 37, 23]",True,5eeb5e0931ca2e0729ebc16d,5e53ab77265dcf3af7fedf02,5eeb7657d655892db4beeba8,,964.5949999976438,j,,f,Q_in_O_vs,0.0,,,,,,,,1.0,0.0,"[-0.099999999999999, 0.30000000000000004]","[[-0.30000000000000004, -0.099999999999999]]"
80,,html-keyboard-response,80,927335,0.0-3.0-2.0-1.4,f078aa2862041786868ef9f2ad23336df49386eb98fe8259951830bdf7c3dbfd,5e53ab77265dcf3af7fedf02,"[52, 164, 254, 182, 102, 180, 30, 1, 2, 34, 81, 239, 102, 57, 59, 204, 224, 48, 20, 165, 17, 235, 254, 116, 41, 240, 114, 193, 108, 150, 37, 23]",True,5eeb5e0931ca2e0729ebc16d,5e53ab77265dcf3af7fedf02,5eeb7657d655892db4beeba8,,,,,,,,,"<div style=""width:150px;height:56px;border:0px;font-size:30px;text-align:center"">wrong.</div>",,,,,,,,,
81,,p5vs_yn,81,928715,0.0-3.0-2.0-0.5,f078aa2862041786868ef9f2ad23336df49386eb98fe8259951830bdf7c3dbfd,5e53ab77265dcf3af7fedf02,"[52, 164, 254, 182, 102, 180, 30, 1, 2, 34, 81, 239, 102, 57, 59, 204, 224, 48, 20, 165, 17, 235, 254, 116, 41, 240, 114, 193, 108, 150, 37, 23]",True,5eeb5e0931ca2e0729ebc16d,5e53ab77265dcf3af7fedf02,5eeb7657d655892db4beeba8,,866.4200000057463,j,,j,Q_in_O_vs,1.0,,,,,,,,8.0,1.0,"[0, -0.33333333333333304]","[[0.16666666666666602, -0.33333333333333304], [0.33333333333333304, 0.33333333333333304], [-0.16666666666666602, -0.16666666666666602], [-0.33333333333333304, -0.33333333333333304], [-0.16666666666666602, 0], [0, 0.33333333333333304], [-0.16666666666666602, 0.33333333333333304], [0.33333333333333304, -0.16666666666666602]]"
82,,html-keyboard-response,82,929720,0.0-3.0-2.0-1.5,f078aa2862041786868ef9f2ad23336df49386eb98fe8259951830bdf7c3dbfd,5e53ab77265dcf3af7fedf02,"[52, 164, 254, 182, 102, 180, 30, 1, 2, 34, 81, 239, 102, 57, 59, 204, 224, 48, 20, 165, 17, 235, 254, 116, 41, 240, 114, 193, 108, 150, 37, 23]",True,5eeb5e0931ca2e0729ebc16d,5e53ab77265dcf3af7fedf02,5eeb7657d655892db4beeba8,,,,,,,,,"<div style=""width:150px;height:56px;font-size:30px;text-align:center;"">correct!</div>",,,,,,,,,
83,,p5vs_yn,83,931016,0.0-3.0-2.0-0.6,f078aa2862041786868ef9f2ad23336df49386eb98fe8259951830bdf7c3dbfd,5e53ab77265dcf3af7fedf02,"[52, 164, 254, 182, 102, 180, 30, 1, 2, 34, 81, 239, 102, 57, 59, 204, 224, 48, 20, 165, 17, 235, 254, 116, 41, 240, 114, 193, 108, 150, 37, 23]",True,5eeb5e0931ca2e0729ebc16d,5e53ab77265dcf3af7fedf02,5eeb7657d655892db4beeba8,,787.3700000054669,j,,j,Q_in_O_vs,1.0,,,,,,,,2.0,1.0,"[0.099999999999999, -0.099999999999999]","[[0.30000000000000004, 0.30000000000000004], [-0.099999999999999, -0.099999999999999]]"
84,,html-keyboard-response,84,932020,0.0-3.0-2.0-1.6,f078aa2862041786868ef9f2ad23336df49386eb98fe8259951830bdf7c3dbfd,5e53ab77265dcf3af7fedf02,"[52, 164, 254, 182, 102, 180, 30, 1, 2, 34, 81, 239, 102, 57, 59, 204, 224, 48, 20, 165, 17, 235, 254, 116, 41, 240, 114, 193, 108, 150, 37, 23]",True,5eeb5e0931ca2e0729ebc16d,5e53ab77265dcf3af7fedf02,5eeb7657d655892db4beeba8,,,,,,,,,"<div style=""width:150px;height:56px;font-size:30px;text-align:center;"">correct!</div>",,,,,,,,,
85,,p5vs_yn,85,933731,0.0-3.0-2.0-0.7,f078aa2862041786868ef9f2ad23336df49386eb98fe8259951830bdf7c3dbfd,5e53ab77265dcf3af7fedf02,"[52, 164, 254, 182, 102, 180, 30, 1, 2, 34, 81, 239, 102, 57, 59, 204, 224, 48, 20, 165, 17, 235, 254, 116, 41, 240, 114, 193, 108, 150, 37, 23]",True,5eeb5e0931ca2e0729ebc16d,5e53ab77265dcf3af7fedf02,5eeb7657d655892db4beeba8,,1200.3099999856204,f,,f,Q_in_O_vs,1.0,,,,,,,,8.0,0.0,"[0.16666666666666602, -0.16666666666666602]","[[-0.33333333333333304, 0.33333333333333304], [0.16666666666666602, 0.33333333333333304], [0, 0], [-0.16666666666666602, 0.16666666666666602], [0.33333333333333304, -0.16666666666666602], [0, -0.33333333333333304], [0.33333333333333304, 0.33333333333333304], [0.16666666666666602, 0.16666666666666602]]"
86,,html-keyboard-response,86,934734,0.0-3.0-2.0-1.7,f078aa2862041786868ef9f2ad23336df49386eb98fe8259951830bdf7c3dbfd,5e53ab77265dcf3af7fedf02,"[52, 164, 254, 182, 102, 180, 30, 1, 2, 34, 81, 239, 102, 57, 59, 204, 224, 48, 20, 165, 17, 235, 254, 116, 41, 240, 114, 193, 108, 150, 37, 23]",True,5eeb5e0931ca2e0729ebc16d,5e53ab77265dcf3af7fedf02,5eeb7657d655892db4beeba8,,,,,,,,,"<div style=""width:150px;height:56px;font-size:30px;text-align:center;"">correct!</div>",,,,,,,,,
87,,p5vs_yn,87,935881,0.0-3.0-2.0-0.8,f078aa2862041786868ef9f2ad23336df49386eb98fe8259951830bdf7c3dbfd,5e53ab77265dcf3af7fedf02,"[52, 164, 254, 182, 102, 180, 30, 1, 2, 34, 81, 239, 102, 57, 59, 204, 224, 48, 20, 165, 17, 235, 254, 116, 41, 240, 114, 193, 108, 150, 37, 23]",True,5eeb5e0931ca2e0729ebc16d,5e53ab77265dcf3af7fedf02,5eeb7657d655892db4beeba8,,638.1950000068173,j,,j,Q_in_O_vs,1.0,,,,,,,,2.0,1.0,"[-0.099999999999999, 0.099999999999999]","[[0.30000000000000004, -0.099999999999999], [0.30000000000000004, -0.30000000000000004]]"
88,,html-keyboard-response,88,936883,0.0-3.0-2.0-1.8,f078aa2862041786868ef9f2ad23336df49386eb98fe8259951830bdf7c3dbfd,5e53ab77265dcf3af7fedf02,"[52, 164, 254, 182, 102, 180, 30, 1, 2, 34, 81, 239, 102, 57, 59, 204, 224, 48, 20, 165, 17, 235, 254, 116, 41, 240, 114, 193, 108, 150, 37, 23]",True,5eeb5e0931ca2e0729ebc16d,5e53ab77265dcf3af7fedf02,5eeb7657d655892db4beeba8,,,,,,,,,"<div style=""width:150px;height:56px;font-size:30px;text-align:center;"">correct!</div>",,,,,,,,,
89,,p5vs_yn,89,938314,0.0-3.0-2.0-0.9,f078aa2862041786868ef9f2ad23336df49386eb98fe8259951830bdf7c3dbfd,5e53ab77265dcf3af7fedf02,"[52, 164, 254, 182, 102, 180, 30, 1, 2, 34, 81, 239, 102, 57, 59, 204, 224, 48, 20, 165, 17, 235, 254, 116, 41, 240, 114, 193, 108, 150, 37, 23]",True,5eeb5e0931ca2e0729ebc16d,5e53ab77265dcf3af7fedf02,5eeb7657d655892db4beeba8,,921.1550000181887,f,,f,Q_in_O_vs,1.0,,,,,,,,4.0,0.0,"[-0.33333333333333304, 0.16666666666666602]","[[0.16666666666666602, -0.33333333333333304], [0.16666666666666602, 0], [-0.33333333333333304, 0], [-0.33333333333333304, -0.33333333333333304]]"
90,,html-keyboard-response,90,939316,0.0-3.0-2.0-1.9,f078aa2862041786868ef9f2ad23336df49386eb98fe8259951830bdf7c3dbfd,5e53ab77265dcf3af7fedf02,"[52, 164, 254, 182, 102, 180, 30, 1, 2, 34, 81, 239, 102, 57, 59, 204, 224, 48, 20, 165, 17, 235, 254, 116, 41, 240, 114, 193, 108, 150, 37, 23]",True,5eeb5e0931ca2e0729ebc16d,5e53ab77265dcf3af7fedf02,5eeb7657d655892db4beeba8,,,,,,,,,"<div style=""width:150px;height:56px;font-size:30px;text-align:center;"">correct!</div>",,,,,,,,,
91,,p5vs_yn,91,941800,0.0-3.0-2.0-0.10,f078aa2862041786868ef9f2ad23336df49386eb98fe8259951830bdf7c3dbfd,5e53ab77265dcf3af7fedf02,"[52, 164, 254, 182, 102, 180, 30, 1, 2, 34, 81, 239, 102, 57, 59, 204, 224, 48, 20, 165, 17, 235, 254, 116, 41, 240, 114, 193, 108, 150, 37, 23]",True,5eeb5e0931ca2e0729ebc16d,5e53ab77265dcf3af7fedf02,5eeb7657d655892db4beeba8,,1970.1549999881536,j,,j,Q_in_O_vs,1.0,,,,,,,,1.0,1.0,"[0.30000000000000004, -0.099999999999999]","[[0.099999999999999, 0.30000000000000004]]"
92,,html-keyboard-response,92,942814,0.0-3.0-2.0-1.10,f078aa2862041786868ef9f2ad23336df49386eb98fe8259951830bdf7c3dbfd,5e53ab77265dcf3af7fedf02,"[52, 164, 254, 182, 102, 180, 30, 1, 2, 34, 81, 239, 102, 57, 59, 204, 224, 48, 20, 165, 17, 235, 254, 116, 41, 240, 114, 193, 108, 150, 37, 23]",True,5eeb5e0931ca2e0729ebc16d,5e53ab77265dcf3af7fedf02,5eeb7657d655892db4beeba8,,,,,,,,,"<div style=""width:150px;height:56px;font-size:30px;text-align:center;"">correct!</div>",,,,,,,,,
93,,p5vs_yn,93,945364,0.0-3.0-2.0-0.11,f078aa2862041786868ef9f2ad23336df49386eb98fe8259951830bdf7c3dbfd,5e53ab77265dcf3af7fedf02,"[52, 164, 254, 182, 102, 180, 30, 1, 2, 34, 81, 239, 102, 57, 59, 204, 224, 48, 20, 165, 17, 235, 254, 116, 41, 240, 114, 193, 108, 150, 37, 23]",True,5eeb5e0931ca2e0729ebc16d,5e53ab77265dcf3af7fedf02,5eeb7657d655892db4beeba8,,2033.19499999634,f,,f,Q_in_O_vs,1.0,,,,,,,,8.0,0.0,"[0, 0]","[[-0.33333333333333304, 0.33333333333333304], [-0.16666666666666602, -0.16666666666666602], [-0.16666666666666602, 0.33333333333333304], [0.33333333333333304, 0.16666666666666602], [-0.16666666666666602, -0.33333333333333304], [0.33333333333333304, 0.33333333333333304], [-0.16666666666666602, 0.16666666666666602], [0, -0.33333333333333304]]"
94,,html-keyboard-response,94,946368,0.0-3.0-2.0-1.11,f078aa2862041786868ef9f2ad23336df49386eb98fe8259951830bdf7c3dbfd,5e53ab77265dcf3af7fedf02,"[52, 164, 254, 182, 102, 180, 30, 1, 2, 34, 81, 239, 102, 57, 59, 204, 224, 48, 20, 165, 17, 235, 254, 116, 41, 240, 114, 193, 108, 150, 37, 23]",True,5eeb5e0931ca2e0729ebc16d,5e53ab77265dcf3af7fedf02,5eeb7657d655892db4beeba8,,,,,,,,,"<div style=""width:150px;height:56px;font-size:30px;text-align:center;"">correct!</div>",,,,,,,,,
95,,p5vs_yn,95,947997,0.0-3.0-2.0-0.12,f078aa2862041786868ef9f2ad23336df49386eb98fe8259951830bdf7c3dbfd,5e53ab77265dcf3af7fedf02,"[52, 164, 254, 182, 102, 180, 30, 1, 2, 34, 81, 239, 102, 57, 59, 204, 224, 48, 20, 165, 17, 235, 254, 116, 41, 240, 114, 193, 108, 150, 37, 23]",True,5eeb5e0931ca2e0729ebc16d,5e53ab77265dcf3af7fedf02,5eeb7657d655892db4beeba8,,1112.7249999844935,j,,j,Q_in_O_vs,1.0,,,,,,,,4.0,1.0,"[-0.16666666666666602, 0.33333333333333304]","[[0.16666666666666602, -0.33333333333333304], [0.16666666666666602, 0.16666666666666602], [-0.16666666666666602, 0], [0, 0]]"
96,,html-keyboard-response,96,949002,0.0-3.0-2.0-1.12,f078aa2862041786868ef9f2ad23336df49386eb98fe8259951830bdf7c3dbfd,5e53ab77265dcf3af7fedf02,"[52, 164, 254, 182, 102, 180, 30, 1, 2, 34, 81, 239, 102, 57, 59, 204, 224, 48, 20, 165, 17, 235, 254, 116, 41, 240, 114, 193, 108, 150, 37, 23]",True,5eeb5e0931ca2e0729ebc16d,5e53ab77265dcf3af7fedf02,5eeb7657d655892db4beeba8,,,,,,,,,"<div style=""width:150px;height:56px;font-size:30px;text-align:center;"">correct!</div>",,,,,,,,,
97,,p5vs_yn,97,950833,0.0-3.0-2.0-0.13,f078aa2862041786868ef9f2ad23336df49386eb98fe8259951830bdf7c3dbfd,5e53ab77265dcf3af7fedf02,"[52, 164, 254, 182, 102, 180, 30, 1, 2, 34, 81, 239, 102, 57, 59, 204, 224, 48, 20, 165, 17, 235, 254, 116, 41, 240, 114, 193, 108, 150, 37, 23]",True,5eeb5e0931ca2e0729ebc16d,5e53ab77265dcf3af7fedf02,5eeb7657d655892db4beeba8,,1320.5900000175461,f,,f,Q_in_O_vs,1.0,,,,,,,,2.0,0.0,"[-0.099999999999999, 0.30000000000000004]","[[0.30000000000000004, 0.099999999999999], [-0.30000000000000004, 0.30000000000000004]]"
98,,html-keyboard-response,98,951836,0.0-3.0-2.0-1.13,f078aa2862041786868ef9f2ad23336df49386eb98fe8259951830bdf7c3dbfd,5e53ab77265dcf3af7fedf02,"[52, 164, 254, 182, 102, 180, 30, 1, 2, 34, 81, 239, 102, 57, 59, 204, 224, 48, 20, 165, 17, 235, 254, 116, 41, 240, 114, 193, 108, 150, 37, 23]",True,5eeb5e0931ca2e0729ebc16d,5e53ab77265dcf3af7fedf02,5eeb7657d655892db4beeba8,,,,,,,,,"<div style=""width:150px;height:56px;font-size:30px;text-align:center;"">correct!</div>",,,,,,,,,
99,,p5vs_yn,99,953117,0.0-3.0-2.0-0.14,f078aa2862041786868ef9f2ad23336df49386eb98fe8259951830bdf7c3dbfd,5e53ab77265dcf3af7fedf02,"[52, 164, 254, 182, 102, 180, 30, 1, 2, 34, 81, 239, 102, 57, 59, 204, 224, 48, 20, 165, 17, 235, 254, 116, 41, 240, 114, 193, 108, 150, 37, 23]",True,5eeb5e0931ca2e0729ebc16d,5e53ab77265dcf3af7fedf02,5eeb7657d655892db4beeba8,,767.2099999908824,j,,j,Q_in_O_vs,1.0,,,,,,,,8.0,1.0,"[0, -0.33333333333333304]","[[-0.33333333333333304, -0.33333333333333304], [0.33333333333333304, 0.16666666666666602], [-0.16666666666666602, 0.33333333333333304], [0, -0.16666666666666602], [0.16666666666666602, 0.33333333333333304], [-0.16666666666666602, 0], [0.33333333333333304, -0.16666666666666602], [-0.16666666666666602, -0.33333333333333304]]"
100,,html-keyboard-response,100,954120,0.0-3.0-2.0-1.14,f078aa2862041786868ef9f2ad23336df49386eb98fe8259951830bdf7c3dbfd,5e53ab77265dcf3af7fedf02,"[52, 164, 254, 182, 102, 180, 30, 1, 2, 34, 81, 239, 102, 57, 59, 204, 224, 48, 20, 165, 17, 235, 254, 116, 41, 240, 114, 193, 108, 150, 37, 23]",True,5eeb5e0931ca2e0729ebc16d,5e53ab77265dcf3af7fedf02,5eeb7657d655892db4beeba8,,,,,,,,,"<div style=""width:150px;height:56px;font-size:30px;text-align:center;"">correct!</div>",,,,,,,,,
101,,p5vs_yn,101,955450,0.0-3.0-2.0-0.15,f078aa2862041786868ef9f2ad23336df49386eb98fe8259951830bdf7c3dbfd,5e53ab77265dcf3af7fedf02,"[52, 164, 254, 182, 102, 180, 30, 1, 2, 34, 81, 239, 102, 57, 59, 204, 224, 48, 20, 165, 17, 235, 254, 116, 41, 240, 114, 193, 108, 150, 37, 23]",True,5eeb5e0931ca2e0729ebc16d,5e53ab77265dcf3af7fedf02,5eeb7657d655892db4beeba8,,823.1650000088848,f,,f,Q_in_O_vs,1.0,,,,,,,,1.0,0.0,"[0.30000000000000004, -0.30000000000000004]","[[0.099999999999999, 0.30000000000000004]]"
102,,html-keyboard-response,102,956454,0.0-3.0-2.0-1.15,f078aa2862041786868ef9f2ad23336df49386eb98fe8259951830bdf7c3dbfd,5e53ab77265dcf3af7fedf02,"[52, 164, 254, 182, 102, 180, 30, 1, 2, 34, 81, 239, 102, 57, 59, 204, 224, 48, 20, 165, 17, 235, 254, 116, 41, 240, 114, 193, 108, 150, 37, 23]",True,5eeb5e0931ca2e0729ebc16d,5e53ab77265dcf3af7fedf02,5eeb7657d655892db4beeba8,,,,,,,,,"<div style=""width:150px;height:56px;font-size:30px;text-align:center;"">correct!</div>",,,,,,,,,
103,,p5Text,103,964160,0.0-3.0-3.0,f078aa2862041786868ef9f2ad23336df49386eb98fe8259951830bdf7c3dbfd,5e53ab77265dcf3af7fedf02,"[52, 164, 254, 182, 102, 180, 30, 1, 2, 34, 81, 239, 102, 57, 59, 204, 224, 48, 20, 165, 17, 235, 254, 116, 41, 240, 114, 193, 108, 150, 37, 23]",True,5eeb5e0931ca2e0729ebc16d,5e53ab77265dcf3af7fedf02,5eeb7657d655892db4beeba8,,,,,,,,,,,,,,,,,,
104,,p5Text,104,973507,0.0-3.0-4.0,f078aa2862041786868ef9f2ad23336df49386eb98fe8259951830bdf7c3dbfd,5e53ab77265dcf3af7fedf02,"[52, 164, 254, 182, 102, 180, 30, 1, 2, 34, 81, 239, 102, 57, 59, 204, 224, 48, 20, 165, 17, 235, 254, 116, 41, 240, 114, 193, 108, 150, 37, 23]",True,5eeb5e0931ca2e0729ebc16d,5e53ab77265dcf3af7fedf02,5eeb7657d655892db4beeba8,,,,,,,,,,,,,,,,,,
105,,p5vs_yn,105,975114,0.0-3.0-5.0-0.0,f078aa2862041786868ef9f2ad23336df49386eb98fe8259951830bdf7c3dbfd,5e53ab77265dcf3af7fedf02,"[52, 164, 254, 182, 102, 180, 30, 1, 2, 34, 81, 239, 102, 57, 59, 204, 224, 48, 20, 165, 17, 235, 254, 116, 41, 240, 114, 193, 108, 150, 37, 23]",True,5eeb5e0931ca2e0729ebc16d,5e53ab77265dcf3af7fedf02,5eeb7657d655892db4beeba8,,1091.694999980973,f,,f,Q_in_O_vs,1.0,,,,,,,,8.0,0.0,"[-0.33333333333333304, -0.16666666666666602]","[[0.33333333333333304, -0.16666666666666602], [-0.33333333333333304, 0], [-0.33333333333333304, -0.33333333333333304], [0, -0.16666666666666602], [0.33333333333333304, 0.16666666666666602], [-0.16666666666666602, 0], [-0.16666666666666602, -0.33333333333333304], [0, 0.16666666666666602]]"
106,,html-keyboard-response,106,976121,0.0-3.0-5.0-1.0,f078aa2862041786868ef9f2ad23336df49386eb98fe8259951830bdf7c3dbfd,5e53ab77265dcf3af7fedf02,"[52, 164, 254, 182, 102, 180, 30, 1, 2, 34, 81, 239, 102, 57, 59, 204, 224, 48, 20, 165, 17, 235, 254, 116, 41, 240, 114, 193, 108, 150, 37, 23]",True,5eeb5e0931ca2e0729ebc16d,5e53ab77265dcf3af7fedf02,5eeb7657d655892db4beeba8,,,,,,,,,"<div style=""width:150px;height:56px;font-size:30px;text-align:center;"">correct!</div>",,,,,,,,,
107,,p5vs_yn,107,977832,0.0-3.0-5.0-0.1,f078aa2862041786868ef9f2ad23336df49386eb98fe8259951830bdf7c3dbfd,5e53ab77265dcf3af7fedf02,"[52, 164, 254, 182, 102, 180, 30, 1, 2, 34, 81, 239, 102, 57, 59, 204, 224, 48, 20, 165, 17, 235, 254, 116, 41, 240, 114, 193, 108, 150, 37, 23]",True,5eeb5e0931ca2e0729ebc16d,5e53ab77265dcf3af7fedf02,5eeb7657d655892db4beeba8,,1196.8700000143144,j,,j,Q_in_O_vs,1.0,,,,,,,,1.0,1.0,"[-0.099999999999999, -0.099999999999999]","[[0.099999999999999, -0.099999999999999]]"
108,,html-keyboard-response,108,978835,0.0-3.0-5.0-1.1,f078aa2862041786868ef9f2ad23336df49386eb98fe8259951830bdf7c3dbfd,5e53ab77265dcf3af7fedf02,"[52, 164, 254, 182, 102, 180, 30, 1, 2, 34, 81, 239, 102, 57, 59, 204, 224, 48, 20, 165, 17, 235, 254, 116, 41, 240, 114, 193, 108, 150, 37, 23]",True,5eeb5e0931ca2e0729ebc16d,5e53ab77265dcf3af7fedf02,5eeb7657d655892db4beeba8,,,,,,,,,"<div style=""width:150px;height:56px;font-size:30px;text-align:center;"">correct!</div>",,,,,,,,,
109,,p5vs_yn,109,979965,0.0-3.0-5.0-0.2,f078aa2862041786868ef9f2ad23336df49386eb98fe8259951830bdf7c3dbfd,5e53ab77265dcf3af7fedf02,"[52, 164, 254, 182, 102, 180, 30, 1, 2, 34, 81, 239, 102, 57, 59, 204, 224, 48, 20, 165, 17, 235, 254, 116, 41, 240, 114, 193, 108, 150, 37, 23]",True,5eeb5e0931ca2e0729ebc16d,5e53ab77265dcf3af7fedf02,5eeb7657d655892db4beeba8,,613.8299999875017,j,,j,Q_in_O_vs,1.0,,,,,,,,2.0,1.0,"[-0.099999999999999, -0.099999999999999]","[[-0.30000000000000004, 0.099999999999999], [0.30000000000000004, 0.099999999999999]]"
110,,html-keyboard-response,110,980968,0.0-3.0-5.0-1.2,f078aa2862041786868ef9f2ad23336df49386eb98fe8259951830bdf7c3dbfd,5e53ab77265dcf3af7fedf02,"[52, 164, 254, 182, 102, 180, 30, 1, 2, 34, 81, 239, 102, 57, 59, 204, 224, 48, 20, 165, 17, 235, 254, 116, 41, 240, 114, 193, 108, 150, 37, 23]",True,5eeb5e0931ca2e0729ebc16d,5e53ab77265dcf3af7fedf02,5eeb7657d655892db4beeba8,,,,,,,,,"<div style=""width:150px;height:56px;font-size:30px;text-align:center;"">correct!</div>",,,,,,,,,
111,,p5vs_yn,111,982181,0.0-3.0-5.0-0.3,f078aa2862041786868ef9f2ad23336df49386eb98fe8259951830bdf7c3dbfd,5e53ab77265dcf3af7fedf02,"[52, 164, 254, 182, 102, 180, 30, 1, 2, 34, 81, 239, 102, 57, 59, 204, 224, 48, 20, 165, 17, 235, 254, 116, 41, 240, 114, 193, 108, 150, 37, 23]",True,5eeb5e0931ca2e0729ebc16d,5e53ab77265dcf3af7fedf02,5eeb7657d655892db4beeba8,,703.7299999792594,j,,j,Q_in_O_vs,1.0,,,,,,,,4.0,1.0,"[-0.16666666666666602, 0.33333333333333304]","[[0.33333333333333304, -0.33333333333333304], [0, 0.16666666666666602], [0.16666666666666602, -0.33333333333333304], [-0.33333333333333304, 0]]"
112,,html-keyboard-response,112,983187,0.0-3.0-5.0-1.3,f078aa2862041786868ef9f2ad23336df49386eb98fe8259951830bdf7c3dbfd,5e53ab77265dcf3af7fedf02,"[52, 164, 254, 182, 102, 180, 30, 1, 2, 34, 81, 239, 102, 57, 59, 204, 224, 48, 20, 165, 17, 235, 254, 116, 41, 240, 114, 193, 108, 150, 37, 23]",True,5eeb5e0931ca2e0729ebc16d,5e53ab77265dcf3af7fedf02,5eeb7657d655892db4beeba8,,,,,,,,,"<div style=""width:150px;height:56px;font-size:30px;text-align:center;"">correct!</div>",,,,,,,,,
113,,p5vs_yn,113,984415,0.0-3.0-5.0-0.4,f078aa2862041786868ef9f2ad23336df49386eb98fe8259951830bdf7c3dbfd,5e53ab77265dcf3af7fedf02,"[52, 164, 254, 182, 102, 180, 30, 1, 2, 34, 81, 239, 102, 57, 59, 204, 224, 48, 20, 165, 17, 235, 254, 116, 41, 240, 114, 193, 108, 150, 37, 23]",True,5eeb5e0931ca2e0729ebc16d,5e53ab77265dcf3af7fedf02,5eeb7657d655892db4beeba8,,715.3150000085589,j,,j,Q_in_O_vs,1.0,,,,,,,,8.0,1.0,"[0, -0.16666666666666602]","[[0.33333333333333304, 0], [-0.16666666666666602, -0.16666666666666602], [-0.33333333333333304, -0.16666666666666602], [0.33333333333333304, -0.33333333333333304], [0, 0], [-0.33333333333333304, 0.33333333333333304], [-0.33333333333333304, 0], [-0.33333333333333304, 0.16666666666666602]]"
114,,html-keyboard-response,114,985419,0.0-3.0-5.0-1.4,f078aa2862041786868ef9f2ad23336df49386eb98fe8259951830bdf7c3dbfd,5e53ab77265dcf3af7fedf02,"[52, 164, 254, 182, 102, 180, 30, 1, 2, 34, 81, 239, 102, 57, 59, 204, 224, 48, 20, 165, 17, 235, 254, 116, 41, 240, 114, 193, 108, 150, 37, 23]",True,5eeb5e0931ca2e0729ebc16d,5e53ab77265dcf3af7fedf02,5eeb7657d655892db4beeba8,,,,,,,,,"<div style=""width:150px;height:56px;font-size:30px;text-align:center;"">correct!</div>",,,,,,,,,
115,,p5vs_yn,115,986665,0.0-3.0-5.0-0.5,f078aa2862041786868ef9f2ad23336df49386eb98fe8259951830bdf7c3dbfd,5e53ab77265dcf3af7fedf02,"[52, 164, 254, 182, 102, 180, 30, 1, 2, 34, 81, 239, 102, 57, 59, 204, 224, 48, 20, 165, 17, 235, 254, 116, 41, 240, 114, 193, 108, 150, 37, 23]",True,5eeb5e0931ca2e0729ebc16d,5e53ab77265dcf3af7fedf02,5eeb7657d655892db4beeba8,,731.5999999991618,f,,f,Q_in_O_vs,1.0,,,,,,,,2.0,0.0,"[-0.099999999999999, -0.30000000000000004]","[[0.099999999999999, 0.099999999999999], [-0.099999999999999, -0.099999999999999]]"
116,,html-keyboard-response,116,987668,0.0-3.0-5.0-1.5,f078aa2862041786868ef9f2ad23336df49386eb98fe8259951830bdf7c3dbfd,5e53ab77265dcf3af7fedf02,"[52, 164, 254, 182, 102, 180, 30, 1, 2, 34, 81, 239, 102, 57, 59, 204, 224, 48, 20, 165, 17, 235, 254, 116, 41, 240, 114, 193, 108, 150, 37, 23]",True,5eeb5e0931ca2e0729ebc16d,5e53ab77265dcf3af7fedf02,5eeb7657d655892db4beeba8,,,,,,,,,"<div style=""width:150px;height:56px;font-size:30px;text-align:center;"">correct!</div>",,,,,,,,,
117,,p5vs_yn,117,988881,0.0-3.0-5.0-0.6,f078aa2862041786868ef9f2ad23336df49386eb98fe8259951830bdf7c3dbfd,5e53ab77265dcf3af7fedf02,"[52, 164, 254, 182, 102, 180, 30, 1, 2, 34, 81, 239, 102, 57, 59, 204, 224, 48, 20, 165, 17, 235, 254, 116, 41, 240, 114, 193, 108, 150, 37, 23]",True,5eeb5e0931ca2e0729ebc16d,5e53ab77265dcf3af7fedf02,5eeb7657d655892db4beeba8,,697.5149999780115,f,,f,Q_in_O_vs,1.0,,,,,,,,1.0,0.0,"[-0.099999999999999, 0.099999999999999]","[[0.099999999999999, -0.30000000000000004]]"
118,,html-keyboard-response,118,989886,0.0-3.0-5.0-1.6,f078aa2862041786868ef9f2ad23336df49386eb98fe8259951830bdf7c3dbfd,5e53ab77265dcf3af7fedf02,"[52, 164, 254, 182, 102, 180, 30, 1, 2, 34, 81, 239, 102, 57, 59, 204, 224, 48, 20, 165, 17, 235, 254, 116, 41, 240, 114, 193, 108, 150, 37, 23]",True,5eeb5e0931ca2e0729ebc16d,5e53ab77265dcf3af7fedf02,5eeb7657d655892db4beeba8,,,,,,,,,"<div style=""width:150px;height:56px;font-size:30px;text-align:center;"">correct!</div>",,,,,,,,,
119,,p5vs_yn,119,991181,0.0-3.0-5.0-0.7,f078aa2862041786868ef9f2ad23336df49386eb98fe8259951830bdf7c3dbfd,5e53ab77265dcf3af7fedf02,"[52, 164, 254, 182, 102, 180, 30, 1, 2, 34, 81, 239, 102, 57, 59, 204, 224, 48, 20, 165, 17, 235, 254, 116, 41, 240, 114, 193, 108, 150, 37, 23]",True,5eeb5e0931ca2e0729ebc16d,5e53ab77265dcf3af7fedf02,5eeb7657d655892db4beeba8,,790.0749999971595,f,,f,Q_in_O_vs,1.0,,,,,,,,4.0,0.0,"[-0.33333333333333304, -0.33333333333333304]","[[-0.33333333333333304, -0.16666666666666602], [0, 0], [0.16666666666666602, -0.33333333333333304], [0, -0.16666666666666602]]"
120,,html-keyboard-response,120,992187,0.0-3.0-5.0-1.7,f078aa2862041786868ef9f2ad23336df49386eb98fe8259951830bdf7c3dbfd,5e53ab77265dcf3af7fedf02,"[52, 164, 254, 182, 102, 180, 30, 1, 2, 34, 81, 239, 102, 57, 59, 204, 224, 48, 20, 165, 17, 235, 254, 116, 41, 240, 114, 193, 108, 150, 37, 23]",True,5eeb5e0931ca2e0729ebc16d,5e53ab77265dcf3af7fedf02,5eeb7657d655892db4beeba8,,,,,,,,,"<div style=""width:150px;height:56px;font-size:30px;text-align:center;"">correct!</div>",,,,,,,,,
121,,p5vs_yn,121,993581,0.0-3.0-5.0-0.8,f078aa2862041786868ef9f2ad23336df49386eb98fe8259951830bdf7c3dbfd,5e53ab77265dcf3af7fedf02,"[52, 164, 254, 182, 102, 180, 30, 1, 2, 34, 81, 239, 102, 57, 59, 204, 224, 48, 20, 165, 17, 235, 254, 116, 41, 240, 114, 193, 108, 150, 37, 23]",True,5eeb5e0931ca2e0729ebc16d,5e53ab77265dcf3af7fedf02,5eeb7657d655892db4beeba8,,883.029999997234,f,,f,Q_in_O_vs,1.0,,,,,,,,2.0,0.0,"[-0.30000000000000004, 0.099999999999999]","[[0.30000000000000004, 0.099999999999999], [0.30000000000000004, 0.30000000000000004]]"
122,,html-keyboard-response,122,994588,0.0-3.0-5.0-1.8,f078aa2862041786868ef9f2ad23336df49386eb98fe8259951830bdf7c3dbfd,5e53ab77265dcf3af7fedf02,"[52, 164, 254, 182, 102, 180, 30, 1, 2, 34, 81, 239, 102, 57, 59, 204, 224, 48, 20, 165, 17, 235, 254, 116, 41, 240, 114, 193, 108, 150, 37, 23]",True,5eeb5e0931ca2e0729ebc16d,5e53ab77265dcf3af7fedf02,5eeb7657d655892db4beeba8,,,,,,,,,"<div style=""width:150px;height:56px;font-size:30px;text-align:center;"">correct!</div>",,,,,,,,,
123,,p5vs_yn,123,995814,0.0-3.0-5.0-0.9,f078aa2862041786868ef9f2ad23336df49386eb98fe8259951830bdf7c3dbfd,5e53ab77265dcf3af7fedf02,"[52, 164, 254, 182, 102, 180, 30, 1, 2, 34, 81, 239, 102, 57, 59, 204, 224, 48, 20, 165, 17, 235, 254, 116, 41, 240, 114, 193, 108, 150, 37, 23]",True,5eeb5e0931ca2e0729ebc16d,5e53ab77265dcf3af7fedf02,5eeb7657d655892db4beeba8,,714.9499999941327,j,,j,Q_in_O_vs,1.0,,,,,,,,4.0,1.0,"[0, 0.33333333333333304]","[[-0.33333333333333304, 0], [0, -0.16666666666666602], [0.16666666666666602, 0.16666666666666602], [-0.16666666666666602, -0.33333333333333304]]"
124,,html-keyboard-response,124,996818,0.0-3.0-5.0-1.9,f078aa2862041786868ef9f2ad23336df49386eb98fe8259951830bdf7c3dbfd,5e53ab77265dcf3af7fedf02,"[52, 164, 254, 182, 102, 180, 30, 1, 2, 34, 81, 239, 102, 57, 59, 204, 224, 48, 20, 165, 17, 235, 254, 116, 41, 240, 114, 193, 108, 150, 37, 23]",True,5eeb5e0931ca2e0729ebc16d,5e53ab77265dcf3af7fedf02,5eeb7657d655892db4beeba8,,,,,,,,,"<div style=""width:150px;height:56px;font-size:30px;text-align:center;"">correct!</div>",,,,,,,,,
125,,p5vs_yn,125,998048,0.0-3.0-5.0-0.10,f078aa2862041786868ef9f2ad23336df49386eb98fe8259951830bdf7c3dbfd,5e53ab77265dcf3af7fedf02,"[52, 164, 254, 182, 102, 180, 30, 1, 2, 34, 81, 239, 102, 57, 59, 204, 224, 48, 20, 165, 17, 235, 254, 116, 41, 240, 114, 193, 108, 150, 37, 23]",True,5eeb5e0931ca2e0729ebc16d,5e53ab77265dcf3af7fedf02,5eeb7657d655892db4beeba8,,722.299999993993,j,,j,Q_in_O_vs,1.0,,,,,,,,2.0,1.0,"[-0.30000000000000004, 0.099999999999999]","[[0.099999999999999, 0.30000000000000004], [0.30000000000000004, 0.30000000000000004]]"
126,,html-keyboard-response,126,999053,0.0-3.0-5.0-1.10,f078aa2862041786868ef9f2ad23336df49386eb98fe8259951830bdf7c3dbfd,5e53ab77265dcf3af7fedf02,"[52, 164, 254, 182, 102, 180, 30, 1, 2, 34, 81, 239, 102, 57, 59, 204, 224, 48, 20, 165, 17, 235, 254, 116, 41, 240, 114, 193, 108, 150, 37, 23]",True,5eeb5e0931ca2e0729ebc16d,5e53ab77265dcf3af7fedf02,5eeb7657d655892db4beeba8,,,,,,,,,"<div style=""width:150px;height:56px;font-size:30px;text-align:center;"">correct!</div>",,,,,,,,,
127,,p5vs_yn,127,1000648,0.0-3.0-5.0-0.11,f078aa2862041786868ef9f2ad23336df49386eb98fe8259951830bdf7c3dbfd,5e53ab77265dcf3af7fedf02,"[52, 164, 254, 182, 102, 180, 30, 1, 2, 34, 81, 239, 102, 57, 59, 204, 224, 48, 20, 165, 17, 235, 254, 116, 41, 240, 114, 193, 108, 150, 37, 23]",True,5eeb5e0931ca2e0729ebc16d,5e53ab77265dcf3af7fedf02,5eeb7657d655892db4beeba8,,1080.439999990631,f,,f,Q_in_O_vs,1.0,,,,,,,,8.0,0.0,"[0, 0.16666666666666602]","[[-0.16666666666666602, 0.33333333333333304], [0.16666666666666602, 0.33333333333333304], [-0.16666666666666602, 0], [0.16666666666666602, -0.33333333333333304], [0.33333333333333304, -0.33333333333333304], [0, 0.33333333333333304], [-0.33333333333333304, 0], [-0.16666666666666602, -0.16666666666666602]]"
128,,html-keyboard-response,128,1001653,0.0-3.0-5.0-1.11,f078aa2862041786868ef9f2ad23336df49386eb98fe8259951830bdf7c3dbfd,5e53ab77265dcf3af7fedf02,"[52, 164, 254, 182, 102, 180, 30, 1, 2, 34, 81, 239, 102, 57, 59, 204, 224, 48, 20, 165, 17, 235, 254, 116, 41, 240, 114, 193, 108, 150, 37, 23]",True,5eeb5e0931ca2e0729ebc16d,5e53ab77265dcf3af7fedf02,5eeb7657d655892db4beeba8,,,,,,,,,"<div style=""width:150px;height:56px;font-size:30px;text-align:center;"">correct!</div>",,,,,,,,,
129,,p5vs_yn,129,1002981,0.0-3.0-5.0-0.12,f078aa2862041786868ef9f2ad23336df49386eb98fe8259951830bdf7c3dbfd,5e53ab77265dcf3af7fedf02,"[52, 164, 254, 182, 102, 180, 30, 1, 2, 34, 81, 239, 102, 57, 59, 204, 224, 48, 20, 165, 17, 235, 254, 116, 41, 240, 114, 193, 108, 150, 37, 23]",True,5eeb5e0931ca2e0729ebc16d,5e53ab77265dcf3af7fedf02,5eeb7657d655892db4beeba8,,819.7849999996834,f,,f,Q_in_O_vs,1.0,,,,,,,,1.0,0.0,"[-0.30000000000000004, -0.30000000000000004]","[[0.099999999999999, 0.30000000000000004]]"
130,,html-keyboard-response,130,1003983,0.0-3.0-5.0-1.12,f078aa2862041786868ef9f2ad23336df49386eb98fe8259951830bdf7c3dbfd,5e53ab77265dcf3af7fedf02,"[52, 164, 254, 182, 102, 180, 30, 1, 2, 34, 81, 239, 102, 57, 59, 204, 224, 48, 20, 165, 17, 235, 254, 116, 41, 240, 114, 193, 108, 150, 37, 23]",True,5eeb5e0931ca2e0729ebc16d,5e53ab77265dcf3af7fedf02,5eeb7657d655892db4beeba8,,,,,,,,,"<div style=""width:150px;height:56px;font-size:30px;text-align:center;"">correct!</div>",,,,,,,,,
131,,p5vs_yn,131,1005314,0.0-3.0-5.0-0.13,f078aa2862041786868ef9f2ad23336df49386eb98fe8259951830bdf7c3dbfd,5e53ab77265dcf3af7fedf02,"[52, 164, 254, 182, 102, 180, 30, 1, 2, 34, 81, 239, 102, 57, 59, 204, 224, 48, 20, 165, 17, 235, 254, 116, 41, 240, 114, 193, 108, 150, 37, 23]",True,5eeb5e0931ca2e0729ebc16d,5e53ab77265dcf3af7fedf02,5eeb7657d655892db4beeba8,,815.8199999888893,j,,j,Q_in_O_vs,1.0,,,,,,,,8.0,1.0,"[-0.33333333333333304, 0.33333333333333304]","[[0.33333333333333304, -0.16666666666666602], [0.16666666666666602, -0.16666666666666602], [0.33333333333333304, -0.33333333333333304], [-0.16666666666666602, 0.33333333333333304], [0, 0.16666666666666602], [-0.16666666666666602, 0], [-0.16666666666666602, -0.16666666666666602], [-0.16666666666666602, 0.16666666666666602]]"
132,,html-keyboard-response,132,1006317,0.0-3.0-5.0-1.13,f078aa2862041786868ef9f2ad23336df49386eb98fe8259951830bdf7c3dbfd,5e53ab77265dcf3af7fedf02,"[52, 164, 254, 182, 102, 180, 30, 1, 2, 34, 81, 239, 102, 57, 59, 204, 224, 48, 20, 165, 17, 235, 254, 116, 41, 240, 114, 193, 108, 150, 37, 23]",True,5eeb5e0931ca2e0729ebc16d,5e53ab77265dcf3af7fedf02,5eeb7657d655892db4beeba8,,,,,,,,,"<div style=""width:150px;height:56px;font-size:30px;text-align:center;"">correct!</div>",,,,,,,,,
133,,p5vs_yn,133,1007914,0.0-3.0-5.0-0.14,f078aa2862041786868ef9f2ad23336df49386eb98fe8259951830bdf7c3dbfd,5e53ab77265dcf3af7fedf02,"[52, 164, 254, 182, 102, 180, 30, 1, 2, 34, 81, 239, 102, 57, 59, 204, 224, 48, 20, 165, 17, 235, 254, 116, 41, 240, 114, 193, 108, 150, 37, 23]",True,5eeb5e0931ca2e0729ebc16d,5e53ab77265dcf3af7fedf02,5eeb7657d655892db4beeba8,,1082.220000011148,f,,f,Q_in_O_vs,1.0,,,,,,,,4.0,0.0,"[0.33333333333333304, 0]","[[0.16666666666666602, -0.16666666666666602], [-0.16666666666666602, 0], [-0.33333333333333304, 0.16666666666666602], [0.33333333333333304, -0.33333333333333304]]"
134,,html-keyboard-response,134,1008918,0.0-3.0-5.0-1.14,f078aa2862041786868ef9f2ad23336df49386eb98fe8259951830bdf7c3dbfd,5e53ab77265dcf3af7fedf02,"[52, 164, 254, 182, 102, 180, 30, 1, 2, 34, 81, 239, 102, 57, 59, 204, 224, 48, 20, 165, 17, 235, 254, 116, 41, 240, 114, 193, 108, 150, 37, 23]",True,5eeb5e0931ca2e0729ebc16d,5e53ab77265dcf3af7fedf02,5eeb7657d655892db4beeba8,,,,,,,,,"<div style=""width:150px;height:56px;font-size:30px;text-align:center;"">correct!</div>",,,,,,,,,
135,,p5vs_yn,135,1010198,0.0-3.0-5.0-0.15,f078aa2862041786868ef9f2ad23336df49386eb98fe8259951830bdf7c3dbfd,5e53ab77265dcf3af7fedf02,"[52, 164, 254, 182, 102, 180, 30, 1, 2, 34, 81, 239, 102, 57, 59, 204, 224, 48, 20, 165, 17, 235, 254, 116, 41, 240, 114, 193, 108, 150, 37, 23]",True,5eeb5e0931ca2e0729ebc16d,5e53ab77265dcf3af7fedf02,5eeb7657d655892db4beeba8,,768.5749999945983,j,,j,Q_in_O_vs,1.0,,,,,,,,1.0,1.0,"[-0.30000000000000004, -0.30000000000000004]","[[-0.30000000000000004, 0.30000000000000004]]"
136,,html-keyboard-response,136,1011203,0.0-3.0-5.0-1.15,f078aa2862041786868ef9f2ad23336df49386eb98fe8259951830bdf7c3dbfd,5e53ab77265dcf3af7fedf02,"[52, 164, 254, 182, 102, 180, 30, 1, 2, 34, 81, 239, 102, 57, 59, 204, 224, 48, 20, 165, 17, 235, 254, 116, 41, 240, 114, 193, 108, 150, 37, 23]",True,5eeb5e0931ca2e0729ebc16d,5e53ab77265dcf3af7fedf02,5eeb7657d655892db4beeba8,,,,,,,,,"<div style=""width:150px;height:56px;font-size:30px;text-align:center;"">correct!</div>",,,,,,,,,
137,,p5Text,137,1035645,0.0-3.0-6.0,f078aa2862041786868ef9f2ad23336df49386eb98fe8259951830bdf7c3dbfd,5e53ab77265dcf3af7fedf02,"[52, 164, 254, 182, 102, 180, 30, 1, 2, 34, 81, 239, 102, 57, 59, 204, 224, 48, 20, 165, 17, 235, 254, 116, 41, 240, 114, 193, 108, 150, 37, 23]",True,5eeb5e0931ca2e0729ebc16d,5e53ab77265dcf3af7fedf02,5eeb7657d655892db4beeba8,,,,,,,,,,,,,,,,,,
138,,call-function,138,1035648,0.0-3.0-7.0,f078aa2862041786868ef9f2ad23336df49386eb98fe8259951830bdf7c3dbfd,5e53ab77265dcf3af7fedf02,"[52, 164, 254, 182, 102, 180, 30, 1, 2, 34, 81, 239, 102, 57, 59, 204, 224, 48, 20, 165, 17, 235, 254, 116, 41, 240, 114, 193, 108, 150, 37, 23]",True,5eeb5e0931ca2e0729ebc16d,5e53ab77265dcf3af7fedf02,5eeb7657d655892db4beeba8,,,,,,,,,,,,,,,,,,
139,,p5Text,139,1041072,0.0-4.0-0.0,f078aa2862041786868ef9f2ad23336df49386eb98fe8259951830bdf7c3dbfd,5e53ab77265dcf3af7fedf02,"[52, 164, 254, 182, 102, 180, 30, 1, 2, 34, 81, 239, 102, 57, 59, 204, 224, 48, 20, 165, 17, 235, 254, 116, 41, 240, 114, 193, 108, 150, 37, 23]",True,5eeb5e0931ca2e0729ebc16d,5e53ab77265dcf3af7fedf02,5eeb7657d655892db4beeba8,,,,,,,,,,,,,,,,,,
140,,p5vs_yn,140,1043410,0.0-4.0-1.0-0.0-0.0,f078aa2862041786868ef9f2ad23336df49386eb98fe8259951830bdf7c3dbfd,5e53ab77265dcf3af7fedf02,"[52, 164, 254, 182, 102, 180, 30, 1, 2, 34, 81, 239, 102, 57, 59, 204, 224, 48, 20, 165, 17, 235, 254, 116, 41, 240, 114, 193, 108, 150, 37, 23]",True,5eeb5e0931ca2e0729ebc16d,5e53ab77265dcf3af7fedf02,5eeb7657d655892db4beeba8,,1815.6050000106916,j,,j,practice_O_in_Q,1.0,,,,,,,,3.0,1.0,"[0.30000000000000004, 0.099999999999999]","[[-0.099999999999999, -0.30000000000000004], [0.099999999999999, -0.099999999999999], [-0.30000000000000004, 0.30000000000000004]]"
141,,html-keyboard-response,141,1044419,0.0-4.0-1.0-0.0-1.0,f078aa2862041786868ef9f2ad23336df49386eb98fe8259951830bdf7c3dbfd,5e53ab77265dcf3af7fedf02,"[52, 164, 254, 182, 102, 180, 30, 1, 2, 34, 81, 239, 102, 57, 59, 204, 224, 48, 20, 165, 17, 235, 254, 116, 41, 240, 114, 193, 108, 150, 37, 23]",True,5eeb5e0931ca2e0729ebc16d,5e53ab77265dcf3af7fedf02,5eeb7657d655892db4beeba8,,,,,,,,,"<div style=""width:150px;height:56px;font-size:30px;text-align:center;"">correct!</div>",,,,,,,,,
142,,p5vs_yn,142,1045861,0.0-4.0-1.0-0.0-0.1,f078aa2862041786868ef9f2ad23336df49386eb98fe8259951830bdf7c3dbfd,5e53ab77265dcf3af7fedf02,"[52, 164, 254, 182, 102, 180, 30, 1, 2, 34, 81, 239, 102, 57, 59, 204, 224, 48, 20, 165, 17, 235, 254, 116, 41, 240, 114, 193, 108, 150, 37, 23]",True,5eeb5e0931ca2e0729ebc16d,5e53ab77265dcf3af7fedf02,5eeb7657d655892db4beeba8,,933.4650000091642,f,,f,practice_O_in_Q,1.0,,,,,,,,3.0,0.0,"[-0.099999999999999, -0.099999999999999]","[[0.099999999999999, -0.30000000000000004], [-0.099999999999999, -0.30000000000000004], [0.30000000000000004, -0.099999999999999]]"
143,,html-keyboard-response,143,1046866,0.0-4.0-1.0-0.0-1.1,f078aa2862041786868ef9f2ad23336df49386eb98fe8259951830bdf7c3dbfd,5e53ab77265dcf3af7fedf02,"[52, 164, 254, 182, 102, 180, 30, 1, 2, 34, 81, 239, 102, 57, 59, 204, 224, 48, 20, 165, 17, 235, 254, 116, 41, 240, 114, 193, 108, 150, 37, 23]",True,5eeb5e0931ca2e0729ebc16d,5e53ab77265dcf3af7fedf02,5eeb7657d655892db4beeba8,,,,,,,,,"<div style=""width:150px;height:56px;font-size:30px;text-align:center;"">correct!</div>",,,,,,,,,
144,,p5vs_yn,144,1048728,0.0-4.0-1.0-0.0-0.2,f078aa2862041786868ef9f2ad23336df49386eb98fe8259951830bdf7c3dbfd,5e53ab77265dcf3af7fedf02,"[52, 164, 254, 182, 102, 180, 30, 1, 2, 34, 81, 239, 102, 57, 59, 204, 224, 48, 20, 165, 17, 235, 254, 116, 41, 240, 114, 193, 108, 150, 37, 23]",True,5eeb5e0931ca2e0729ebc16d,5e53ab77265dcf3af7fedf02,5eeb7657d655892db4beeba8,,1352.7600000088569,j,,j,practice_O_in_Q,1.0,,,,,,,,3.0,1.0,"[0.099999999999999, -0.099999999999999]","[[0.30000000000000004, -0.099999999999999], [-0.30000000000000004, 0.099999999999999], [0.099999999999999, -0.30000000000000004]]"
145,,html-keyboard-response,145,1049732,0.0-4.0-1.0-0.0-1.2,f078aa2862041786868ef9f2ad23336df49386eb98fe8259951830bdf7c3dbfd,5e53ab77265dcf3af7fedf02,"[52, 164, 254, 182, 102, 180, 30, 1, 2, 34, 81, 239, 102, 57, 59, 204, 224, 48, 20, 165, 17, 235, 254, 116, 41, 240, 114, 193, 108, 150, 37, 23]",True,5eeb5e0931ca2e0729ebc16d,5e53ab77265dcf3af7fedf02,5eeb7657d655892db4beeba8,,,,,,,,,"<div style=""width:150px;height:56px;font-size:30px;text-align:center;"">correct!</div>",,,,,,,,,
146,,p5vs_yn,146,1051127,0.0-4.0-1.0-0.0-0.3,f078aa2862041786868ef9f2ad23336df49386eb98fe8259951830bdf7c3dbfd,5e53ab77265dcf3af7fedf02,"[52, 164, 254, 182, 102, 180, 30, 1, 2, 34, 81, 239, 102, 57, 59, 204, 224, 48, 20, 165, 17, 235, 254, 116, 41, 240, 114, 193, 108, 150, 37, 23]",True,5eeb5e0931ca2e0729ebc16d,5e53ab77265dcf3af7fedf02,5eeb7657d655892db4beeba8,,887.8249999834225,f,,f,practice_O_in_Q,1.0,,,,,,,,3.0,0.0,"[0.099999999999999, 0.099999999999999]","[[0.30000000000000004, -0.099999999999999], [-0.099999999999999, -0.30000000000000004], [0.099999999999999, -0.099999999999999]]"
147,,html-keyboard-response,147,1052131,0.0-4.0-1.0-0.0-1.3,f078aa2862041786868ef9f2ad23336df49386eb98fe8259951830bdf7c3dbfd,5e53ab77265dcf3af7fedf02,"[52, 164, 254, 182, 102, 180, 30, 1, 2, 34, 81, 239, 102, 57, 59, 204, 224, 48, 20, 165, 17, 235, 254, 116, 41, 240, 114, 193, 108, 150, 37, 23]",True,5eeb5e0931ca2e0729ebc16d,5e53ab77265dcf3af7fedf02,5eeb7657d655892db4beeba8,,,,,,,,,"<div style=""width:150px;height:56px;font-size:30px;text-align:center;"">correct!</div>",,,,,,,,,
148,,p5vs_yn,148,1053244,0.0-4.0-2.0-0.0,f078aa2862041786868ef9f2ad23336df49386eb98fe8259951830bdf7c3dbfd,5e53ab77265dcf3af7fedf02,"[52, 164, 254, 182, 102, 180, 30, 1, 2, 34, 81, 239, 102, 57, 59, 204, 224, 48, 20, 165, 17, 235, 254, 116, 41, 240, 114, 193, 108, 150, 37, 23]",True,5eeb5e0931ca2e0729ebc16d,5e53ab77265dcf3af7fedf02,5eeb7657d655892db4beeba8,,597.4550000100862,j,,j,O_in_Q_vs,1.0,,,,,,,,1.0,1.0,"[0.099999999999999, 0.099999999999999]","[[-0.30000000000000004, -0.099999999999999]]"
149,,html-keyboard-response,149,1054248,0.0-4.0-2.0-1.0,f078aa2862041786868ef9f2ad23336df49386eb98fe8259951830bdf7c3dbfd,5e53ab77265dcf3af7fedf02,"[52, 164, 254, 182, 102, 180, 30, 1, 2, 34, 81, 239, 102, 57, 59, 204, 224, 48, 20, 165, 17, 235, 254, 116, 41, 240, 114, 193, 108, 150, 37, 23]",True,5eeb5e0931ca2e0729ebc16d,5e53ab77265dcf3af7fedf02,5eeb7657d655892db4beeba8,,,,,,,,,"<div style=""width:150px;height:56px;font-size:30px;text-align:center;"">correct!</div>",,,,,,,,,
150,,p5vs_yn,150,1056111,0.0-4.0-2.0-0.1,f078aa2862041786868ef9f2ad23336df49386eb98fe8259951830bdf7c3dbfd,5e53ab77265dcf3af7fedf02,"[52, 164, 254, 182, 102, 180, 30, 1, 2, 34, 81, 239, 102, 57, 59, 204, 224, 48, 20, 165, 17, 235, 254, 116, 41, 240, 114, 193, 108, 150, 37, 23]",True,5eeb5e0931ca2e0729ebc16d,5e53ab77265dcf3af7fedf02,5eeb7657d655892db4beeba8,,1349.2499999993015,j,,j,O_in_Q_vs,1.0,,,,,,,,8.0,1.0,"[0.16666666666666602, 0.33333333333333304]","[[-0.16666666666666602, 0.33333333333333304], [-0.33333333333333304, 0.33333333333333304], [0.33333333333333304, 0.33333333333333304], [0.16666666666666602, 0.16666666666666602], [0.33333333333333304, -0.33333333333333304], [0, 0], [0, -0.33333333333333304], [0.16666666666666602, 0]]"
151,,html-keyboard-response,151,1057113,0.0-4.0-2.0-1.1,f078aa2862041786868ef9f2ad23336df49386eb98fe8259951830bdf7c3dbfd,5e53ab77265dcf3af7fedf02,"[52, 164, 254, 182, 102, 180, 30, 1, 2, 34, 81, 239, 102, 57, 59, 204, 224, 48, 20, 165, 17, 235, 254, 116, 41, 240, 114, 193, 108, 150, 37, 23]",True,5eeb5e0931ca2e0729ebc16d,5e53ab77265dcf3af7fedf02,5eeb7657d655892db4beeba8,,,,,,,,,"<div style=""width:150px;height:56px;font-size:30px;text-align:center;"">correct!</div>",,,,,,,,,
152,,p5vs_yn,152,1058362,0.0-4.0-2.0-0.2,f078aa2862041786868ef9f2ad23336df49386eb98fe8259951830bdf7c3dbfd,5e53ab77265dcf3af7fedf02,"[52, 164, 254, 182, 102, 180, 30, 1, 2, 34, 81, 239, 102, 57, 59, 204, 224, 48, 20, 165, 17, 235, 254, 116, 41, 240, 114, 193, 108, 150, 37, 23]",True,5eeb5e0931ca2e0729ebc16d,5e53ab77265dcf3af7fedf02,5eeb7657d655892db4beeba8,,744.0900000219699,j,,j,O_in_Q_vs,1.0,,,,,,,,2.0,1.0,"[0.099999999999999, -0.30000000000000004]","[[0.099999999999999, -0.099999999999999], [-0.30000000000000004, 0.099999999999999]]"
153,,html-keyboard-response,153,1059365,0.0-4.0-2.0-1.2,f078aa2862041786868ef9f2ad23336df49386eb98fe8259951830bdf7c3dbfd,5e53ab77265dcf3af7fedf02,"[52, 164, 254, 182, 102, 180, 30, 1, 2, 34, 81, 239, 102, 57, 59, 204, 224, 48, 20, 165, 17, 235, 254, 116, 41, 240, 114, 193, 108, 150, 37, 23]",True,5eeb5e0931ca2e0729ebc16d,5e53ab77265dcf3af7fedf02,5eeb7657d655892db4beeba8,,,,,,,,,"<div style=""width:150px;height:56px;font-size:30px;text-align:center;"">correct!</div>",,,,,,,,,
154,,p5vs_yn,154,1060726,0.0-4.0-2.0-0.3,f078aa2862041786868ef9f2ad23336df49386eb98fe8259951830bdf7c3dbfd,5e53ab77265dcf3af7fedf02,"[52, 164, 254, 182, 102, 180, 30, 1, 2, 34, 81, 239, 102, 57, 59, 204, 224, 48, 20, 165, 17, 235, 254, 116, 41, 240, 114, 193, 108, 150, 37, 23]",True,5eeb5e0931ca2e0729ebc16d,5e53ab77265dcf3af7fedf02,5eeb7657d655892db4beeba8,,851.2249999912456,j,,j,O_in_Q_vs,1.0,,,,,,,,4.0,1.0,"[0, 0.33333333333333304]","[[0.16666666666666602, 0.16666666666666602], [0.16666666666666602, 0], [0.33333333333333304, 0], [-0.16666666666666602, 0.33333333333333304]]"
155,,html-keyboard-response,155,1061730,0.0-4.0-2.0-1.3,f078aa2862041786868ef9f2ad23336df49386eb98fe8259951830bdf7c3dbfd,5e53ab77265dcf3af7fedf02,"[52, 164, 254, 182, 102, 180, 30, 1, 2, 34, 81, 239, 102, 57, 59, 204, 224, 48, 20, 165, 17, 235, 254, 116, 41, 240, 114, 193, 108, 150, 37, 23]",True,5eeb5e0931ca2e0729ebc16d,5e53ab77265dcf3af7fedf02,5eeb7657d655892db4beeba8,,,,,,,,,"<div style=""width:150px;height:56px;font-size:30px;text-align:center;"">correct!</div>",,,,,,,,,
156,,p5vs_yn,156,1063077,0.0-4.0-2.0-0.4,f078aa2862041786868ef9f2ad23336df49386eb98fe8259951830bdf7c3dbfd,5e53ab77265dcf3af7fedf02,"[52, 164, 254, 182, 102, 180, 30, 1, 2, 34, 81, 239, 102, 57, 59, 204, 224, 48, 20, 165, 17, 235, 254, 116, 41, 240, 114, 193, 108, 150, 37, 23]",True,5eeb5e0931ca2e0729ebc16d,5e53ab77265dcf3af7fedf02,5eeb7657d655892db4beeba8,,834.67500002007,f,,f,O_in_Q_vs,1.0,,,,,,,,4.0,0.0,"[0.16666666666666602, 0.16666666666666602]","[[-0.16666666666666602, 0], [0.16666666666666602, 0], [0.33333333333333304, 0], [0.33333333333333304, 0.16666666666666602]]"
157,,html-keyboard-response,157,1064080,0.0-4.0-2.0-1.4,f078aa2862041786868ef9f2ad23336df49386eb98fe8259951830bdf7c3dbfd,5e53ab77265dcf3af7fedf02,"[52, 164, 254, 182, 102, 180, 30, 1, 2, 34, 81, 239, 102, 57, 59, 204, 224, 48, 20, 165, 17, 235, 254, 116, 41, 240, 114, 193, 108, 150, 37, 23]",True,5eeb5e0931ca2e0729ebc16d,5e53ab77265dcf3af7fedf02,5eeb7657d655892db4beeba8,,,,,,,,,"<div style=""width:150px;height:56px;font-size:30px;text-align:center;"">correct!</div>",,,,,,,,,
158,,p5vs_yn,158,1065826,0.0-4.0-2.0-0.5,f078aa2862041786868ef9f2ad23336df49386eb98fe8259951830bdf7c3dbfd,5e53ab77265dcf3af7fedf02,"[52, 164, 254, 182, 102, 180, 30, 1, 2, 34, 81, 239, 102, 57, 59, 204, 224, 48, 20, 165, 17, 235, 254, 116, 41, 240, 114, 193, 108, 150, 37, 23]",True,5eeb5e0931ca2e0729ebc16d,5e53ab77265dcf3af7fedf02,5eeb7657d655892db4beeba8,,1233.2150000147521,j,,f,O_in_Q_vs,0.0,,,,,,,,2.0,0.0,"[-0.30000000000000004, -0.30000000000000004]","[[0.30000000000000004, 0.099999999999999], [0.30000000000000004, -0.099999999999999]]"
159,,html-keyboard-response,159,1067330,0.0-4.0-2.0-1.5,f078aa2862041786868ef9f2ad23336df49386eb98fe8259951830bdf7c3dbfd,5e53ab77265dcf3af7fedf02,"[52, 164, 254, 182, 102, 180, 30, 1, 2, 34, 81, 239, 102, 57, 59, 204, 224, 48, 20, 165, 17, 235, 254, 116, 41, 240, 114, 193, 108, 150, 37, 23]",True,5eeb5e0931ca2e0729ebc16d,5e53ab77265dcf3af7fedf02,5eeb7657d655892db4beeba8,,,,,,,,,"<div style=""width:150px;height:56px;border:0px;font-size:30px;text-align:center"">wrong.</div>",,,,,,,,,
160,,p5vs_yn,160,1069043,0.0-4.0-2.0-0.6,f078aa2862041786868ef9f2ad23336df49386eb98fe8259951830bdf7c3dbfd,5e53ab77265dcf3af7fedf02,"[52, 164, 254, 182, 102, 180, 30, 1, 2, 34, 81, 239, 102, 57, 59, 204, 224, 48, 20, 165, 17, 235, 254, 116, 41, 240, 114, 193, 108, 150, 37, 23]",True,5eeb5e0931ca2e0729ebc16d,5e53ab77265dcf3af7fedf02,5eeb7657d655892db4beeba8,,1198.1200000154786,f,,f,O_in_Q_vs,1.0,,,,,,,,8.0,0.0,"[-0.16666666666666602, 0]","[[-0.33333333333333304, 0], [-0.33333333333333304, 0.16666666666666602], [0.33333333333333304, 0.16666666666666602], [0.16666666666666602, -0.16666666666666602], [0.33333333333333304, 0.33333333333333304], [0.16666666666666602, -0.33333333333333304], [-0.33333333333333304, -0.16666666666666602], [0, -0.33333333333333304]]"
161,,html-keyboard-response,161,1070047,0.0-4.0-2.0-1.6,f078aa2862041786868ef9f2ad23336df49386eb98fe8259951830bdf7c3dbfd,5e53ab77265dcf3af7fedf02,"[52, 164, 254, 182, 102, 180, 30, 1, 2, 34, 81, 239, 102, 57, 59, 204, 224, 48, 20, 165, 17, 235, 254, 116, 41, 240, 114, 193, 108, 150, 37, 23]",True,5eeb5e0931ca2e0729ebc16d,5e53ab77265dcf3af7fedf02,5eeb7657d655892db4beeba8,,,,,,,,,"<div style=""width:150px;height:56px;font-size:30px;text-align:center;"">correct!</div>",,,,,,,,,
162,,p5vs_yn,162,1071526,0.0-4.0-2.0-0.7,f078aa2862041786868ef9f2ad23336df49386eb98fe8259951830bdf7c3dbfd,5e53ab77265dcf3af7fedf02,"[52, 164, 254, 182, 102, 180, 30, 1, 2, 34, 81, 239, 102, 57, 59, 204, 224, 48, 20, 165, 17, 235, 254, 116, 41, 240, 114, 193, 108, 150, 37, 23]",True,5eeb5e0931ca2e0729ebc16d,5e53ab77265dcf3af7fedf02,5eeb7657d655892db4beeba8,,969.2999999970198,f,,f,O_in_Q_vs,1.0,,,,,,,,1.0,0.0,"[-0.30000000000000004, -0.099999999999999]","[[-0.099999999999999, -0.099999999999999]]"
163,,html-keyboard-response,163,1072533,0.0-4.0-2.0-1.7,f078aa2862041786868ef9f2ad23336df49386eb98fe8259951830bdf7c3dbfd,5e53ab77265dcf3af7fedf02,"[52, 164, 254, 182, 102, 180, 30, 1, 2, 34, 81, 239, 102, 57, 59, 204, 224, 48, 20, 165, 17, 235, 254, 116, 41, 240, 114, 193, 108, 150, 37, 23]",True,5eeb5e0931ca2e0729ebc16d,5e53ab77265dcf3af7fedf02,5eeb7657d655892db4beeba8,,,,,,,,,"<div style=""width:150px;height:56px;font-size:30px;text-align:center;"">correct!</div>",,,,,,,,,
164,,p5vs_yn,164,1073644,0.0-4.0-2.0-0.8,f078aa2862041786868ef9f2ad23336df49386eb98fe8259951830bdf7c3dbfd,5e53ab77265dcf3af7fedf02,"[52, 164, 254, 182, 102, 180, 30, 1, 2, 34, 81, 239, 102, 57, 59, 204, 224, 48, 20, 165, 17, 235, 254, 116, 41, 240, 114, 193, 108, 150, 37, 23]",True,5eeb5e0931ca2e0729ebc16d,5e53ab77265dcf3af7fedf02,5eeb7657d655892db4beeba8,,596.0850000265054,f,,f,O_in_Q_vs,1.0,,,,,,,,2.0,0.0,"[0.099999999999999, -0.30000000000000004]","[[-0.099999999999999, 0.099999999999999], [-0.30000000000000004, -0.099999999999999]]"
165,,html-keyboard-response,165,1074649,0.0-4.0-2.0-1.8,f078aa2862041786868ef9f2ad23336df49386eb98fe8259951830bdf7c3dbfd,5e53ab77265dcf3af7fedf02,"[52, 164, 254, 182, 102, 180, 30, 1, 2, 34, 81, 239, 102, 57, 59, 204, 224, 48, 20, 165, 17, 235, 254, 116, 41, 240, 114, 193, 108, 150, 37, 23]",True,5eeb5e0931ca2e0729ebc16d,5e53ab77265dcf3af7fedf02,5eeb7657d655892db4beeba8,,,,,,,,,"<div style=""width:150px;height:56px;font-size:30px;text-align:center;"">correct!</div>",,,,,,,,,
166,,p5vs_yn,166,1075944,0.0-4.0-2.0-0.9,f078aa2862041786868ef9f2ad23336df49386eb98fe8259951830bdf7c3dbfd,5e53ab77265dcf3af7fedf02,"[52, 164, 254, 182, 102, 180, 30, 1, 2, 34, 81, 239, 102, 57, 59, 204, 224, 48, 20, 165, 17, 235, 254, 116, 41, 240, 114, 193, 108, 150, 37, 23]",True,5eeb5e0931ca2e0729ebc16d,5e53ab77265dcf3af7fedf02,5eeb7657d655892db4beeba8,,777.9499999887776,j,,j,O_in_Q_vs,1.0,,,,,,,,1.0,1.0,"[-0.30000000000000004, -0.099999999999999]","[[-0.30000000000000004, -0.30000000000000004]]"
167,,html-keyboard-response,167,1076947,0.0-4.0-2.0-1.9,f078aa2862041786868ef9f2ad23336df49386eb98fe8259951830bdf7c3dbfd,5e53ab77265dcf3af7fedf02,"[52, 164, 254, 182, 102, 180, 30, 1, 2, 34, 81, 239, 102, 57, 59, 204, 224, 48, 20, 165, 17, 235, 254, 116, 41, 240, 114, 193, 108, 150, 37, 23]",True,5eeb5e0931ca2e0729ebc16d,5e53ab77265dcf3af7fedf02,5eeb7657d655892db4beeba8,,,,,,,,,"<div style=""width:150px;height:56px;font-size:30px;text-align:center;"">correct!</div>",,,,,,,,,
168,,p5vs_yn,168,1079493,0.0-4.0-2.0-0.10,f078aa2862041786868ef9f2ad23336df49386eb98fe8259951830bdf7c3dbfd,5e53ab77265dcf3af7fedf02,"[52, 164, 254, 182, 102, 180, 30, 1, 2, 34, 81, 239, 102, 57, 59, 204, 224, 48, 20, 165, 17, 235, 254, 116, 41, 240, 114, 193, 108, 150, 37, 23]",True,5eeb5e0931ca2e0729ebc16d,5e53ab77265dcf3af7fedf02,5eeb7657d655892db4beeba8,,2034.2599999858066,j,,j,O_in_Q_vs,1.0,,,,,,,,8.0,1.0,"[-0.33333333333333304, 0]","[[-0.33333333333333304, 0.33333333333333304], [0, -0.33333333333333304], [0.16666666666666602, 0.33333333333333304], [0.16666666666666602, -0.33333333333333304], [-0.16666666666666602, -0.33333333333333304], [0, -0.16666666666666602], [0.16666666666666602, 0], [-0.33333333333333304, -0.33333333333333304]]"
169,,html-keyboard-response,169,1080497,0.0-4.0-2.0-1.10,f078aa2862041786868ef9f2ad23336df49386eb98fe8259951830bdf7c3dbfd,5e53ab77265dcf3af7fedf02,"[52, 164, 254, 182, 102, 180, 30, 1, 2, 34, 81, 239, 102, 57, 59, 204, 224, 48, 20, 165, 17, 235, 254, 116, 41, 240, 114, 193, 108, 150, 37, 23]",True,5eeb5e0931ca2e0729ebc16d,5e53ab77265dcf3af7fedf02,5eeb7657d655892db4beeba8,,,,,,,,,"<div style=""width:150px;height:56px;font-size:30px;text-align:center;"">correct!</div>",,,,,,,,,
170,,p5vs_yn,170,1081893,0.0-4.0-2.0-0.11,f078aa2862041786868ef9f2ad23336df49386eb98fe8259951830bdf7c3dbfd,5e53ab77265dcf3af7fedf02,"[52, 164, 254, 182, 102, 180, 30, 1, 2, 34, 81, 239, 102, 57, 59, 204, 224, 48, 20, 165, 17, 235, 254, 116, 41, 240, 114, 193, 108, 150, 37, 23]",True,5eeb5e0931ca2e0729ebc16d,5e53ab77265dcf3af7fedf02,5eeb7657d655892db4beeba8,,885.5800000019372,f,,f,O_in_Q_vs,1.0,,,,,,,,1.0,0.0,"[-0.30000000000000004, 0.30000000000000004]","[[0.30000000000000004, 0.30000000000000004]]"
171,,html-keyboard-response,171,1082898,0.0-4.0-2.0-1.11,f078aa2862041786868ef9f2ad23336df49386eb98fe8259951830bdf7c3dbfd,5e53ab77265dcf3af7fedf02,"[52, 164, 254, 182, 102, 180, 30, 1, 2, 34, 81, 239, 102, 57, 59, 204, 224, 48, 20, 165, 17, 235, 254, 116, 41, 240, 114, 193, 108, 150, 37, 23]",True,5eeb5e0931ca2e0729ebc16d,5e53ab77265dcf3af7fedf02,5eeb7657d655892db4beeba8,,,,,,,,,"<div style=""width:150px;height:56px;font-size:30px;text-align:center;"">correct!</div>",,,,,,,,,
172,,p5vs_yn,172,1084327,0.0-4.0-2.0-0.12,f078aa2862041786868ef9f2ad23336df49386eb98fe8259951830bdf7c3dbfd,5e53ab77265dcf3af7fedf02,"[52, 164, 254, 182, 102, 180, 30, 1, 2, 34, 81, 239, 102, 57, 59, 204, 224, 48, 20, 165, 17, 235, 254, 116, 41, 240, 114, 193, 108, 150, 37, 23]",True,5eeb5e0931ca2e0729ebc16d,5e53ab77265dcf3af7fedf02,5eeb7657d655892db4beeba8,,911.3099999958649,j,,j,O_in_Q_vs,1.0,,,,,,,,2.0,1.0,"[-0.30000000000000004, 0.099999999999999]","[[-0.099999999999999, -0.099999999999999], [0.099999999999999, 0.30000000000000004]]"
173,,html-keyboard-response,173,1085330,0.0-4.0-2.0-1.12,f078aa2862041786868ef9f2ad23336df49386eb98fe8259951830bdf7c3dbfd,5e53ab77265dcf3af7fedf02,"[52, 164, 254, 182, 102, 180, 30, 1, 2, 34, 81, 239, 102, 57, 59, 204, 224, 48, 20, 165, 17, 235, 254, 116, 41, 240, 114, 193, 108, 150, 37, 23]",True,5eeb5e0931ca2e0729ebc16d,5e53ab77265dcf3af7fedf02,5eeb7657d655892db4beeba8,,,,,,,,,"<div style=""width:150px;height:56px;font-size:30px;text-align:center;"">correct!</div>",,,,,,,,,
174,,p5vs_yn,174,1086793,0.0-4.0-2.0-0.13,f078aa2862041786868ef9f2ad23336df49386eb98fe8259951830bdf7c3dbfd,5e53ab77265dcf3af7fedf02,"[52, 164, 254, 182, 102, 180, 30, 1, 2, 34, 81, 239, 102, 57, 59, 204, 224, 48, 20, 165, 17, 235, 254, 116, 41, 240, 114, 193, 108, 150, 37, 23]",True,5eeb5e0931ca2e0729ebc16d,5e53ab77265dcf3af7fedf02,5eeb7657d655892db4beeba8,,948.0649999750312,f,,f,O_in_Q_vs,1.0,,,,,,,,8.0,0.0,"[-0.16666666666666602, 0]","[[0, -0.33333333333333304], [0.16666666666666602, 0.16666666666666602], [0.33333333333333304, 0], [0.33333333333333304, 0.16666666666666602], [-0.16666666666666602, -0.16666666666666602], [0.33333333333333304, -0.16666666666666602], [-0.33333333333333304, -0.33333333333333304], [0, 0.16666666666666602]]"
175,,html-keyboard-response,175,1087798,0.0-4.0-2.0-1.13,f078aa2862041786868ef9f2ad23336df49386eb98fe8259951830bdf7c3dbfd,5e53ab77265dcf3af7fedf02,"[52, 164, 254, 182, 102, 180, 30, 1, 2, 34, 81, 239, 102, 57, 59, 204, 224, 48, 20, 165, 17, 235, 254, 116, 41, 240, 114, 193, 108, 150, 37, 23]",True,5eeb5e0931ca2e0729ebc16d,5e53ab77265dcf3af7fedf02,5eeb7657d655892db4beeba8,,,,,,,,,"<div style=""width:150px;height:56px;font-size:30px;text-align:center;"">correct!</div>",,,,,,,,,
176,,p5vs_yn,176,1089210,0.0-4.0-2.0-0.14,f078aa2862041786868ef9f2ad23336df49386eb98fe8259951830bdf7c3dbfd,5e53ab77265dcf3af7fedf02,"[52, 164, 254, 182, 102, 180, 30, 1, 2, 34, 81, 239, 102, 57, 59, 204, 224, 48, 20, 165, 17, 235, 254, 116, 41, 240, 114, 193, 108, 150, 37, 23]",True,5eeb5e0931ca2e0729ebc16d,5e53ab77265dcf3af7fedf02,5eeb7657d655892db4beeba8,,901.0249999992084,j,,j,O_in_Q_vs,1.0,,,,,,,,4.0,1.0,"[-0.33333333333333304, -0.16666666666666602]","[[-0.33333333333333304, 0.33333333333333304], [0.16666666666666602, 0], [0, -0.33333333333333304], [-0.33333333333333304, -0.33333333333333304]]"
177,,html-keyboard-response,177,1090212,0.0-4.0-2.0-1.14,f078aa2862041786868ef9f2ad23336df49386eb98fe8259951830bdf7c3dbfd,5e53ab77265dcf3af7fedf02,"[52, 164, 254, 182, 102, 180, 30, 1, 2, 34, 81, 239, 102, 57, 59, 204, 224, 48, 20, 165, 17, 235, 254, 116, 41, 240, 114, 193, 108, 150, 37, 23]",True,5eeb5e0931ca2e0729ebc16d,5e53ab77265dcf3af7fedf02,5eeb7657d655892db4beeba8,,,,,,,,,"<div style=""width:150px;height:56px;font-size:30px;text-align:center;"">correct!</div>",,,,,,,,,
178,,p5vs_yn,178,1091609,0.0-4.0-2.0-0.15,f078aa2862041786868ef9f2ad23336df49386eb98fe8259951830bdf7c3dbfd,5e53ab77265dcf3af7fedf02,"[52, 164, 254, 182, 102, 180, 30, 1, 2, 34, 81, 239, 102, 57, 59, 204, 224, 48, 20, 165, 17, 235, 254, 116, 41, 240, 114, 193, 108, 150, 37, 23]",True,5eeb5e0931ca2e0729ebc16d,5e53ab77265dcf3af7fedf02,5eeb7657d655892db4beeba8,,888.8950000109617,f,,f,O_in_Q_vs,1.0,,,,,,,,4.0,0.0,"[0.33333333333333304, -0.33333333333333304]","[[0.16666666666666602, 0.33333333333333304], [0.33333333333333304, 0.33333333333333304], [0.16666666666666602, -0.16666666666666602], [-0.16666666666666602, 0.16666666666666602]]"
179,,html-keyboard-response,179,1092613,0.0-4.0-2.0-1.15,f078aa2862041786868ef9f2ad23336df49386eb98fe8259951830bdf7c3dbfd,5e53ab77265dcf3af7fedf02,"[52, 164, 254, 182, 102, 180, 30, 1, 2, 34, 81, 239, 102, 57, 59, 204, 224, 48, 20, 165, 17, 235, 254, 116, 41, 240, 114, 193, 108, 150, 37, 23]",True,5eeb5e0931ca2e0729ebc16d,5e53ab77265dcf3af7fedf02,5eeb7657d655892db4beeba8,,,,,,,,,"<div style=""width:150px;height:56px;font-size:30px;text-align:center;"">correct!</div>",,,,,,,,,
180,,p5Text,180,1099050,0.0-4.0-3.0,f078aa2862041786868ef9f2ad23336df49386eb98fe8259951830bdf7c3dbfd,5e53ab77265dcf3af7fedf02,"[52, 164, 254, 182, 102, 180, 30, 1, 2, 34, 81, 239, 102, 57, 59, 204, 224, 48, 20, 165, 17, 235, 254, 116, 41, 240, 114, 193, 108, 150, 37, 23]",True,5eeb5e0931ca2e0729ebc16d,5e53ab77265dcf3af7fedf02,5eeb7657d655892db4beeba8,,,,,,,,,,,,,,,,,,
181,,p5Text,181,1101683,0.0-4.0-4.0,f078aa2862041786868ef9f2ad23336df49386eb98fe8259951830bdf7c3dbfd,5e53ab77265dcf3af7fedf02,"[52, 164, 254, 182, 102, 180, 30, 1, 2, 34, 81, 239, 102, 57, 59, 204, 224, 48, 20, 165, 17, 235, 254, 116, 41, 240, 114, 193, 108, 150, 37, 23]",True,5eeb5e0931ca2e0729ebc16d,5e53ab77265dcf3af7fedf02,5eeb7657d655892db4beeba8,,,,,,,,,,,,,,,,,,
182,,p5vs_yn,182,1103309,0.0-4.0-5.0-0.0,f078aa2862041786868ef9f2ad23336df49386eb98fe8259951830bdf7c3dbfd,5e53ab77265dcf3af7fedf02,"[52, 164, 254, 182, 102, 180, 30, 1, 2, 34, 81, 239, 102, 57, 59, 204, 224, 48, 20, 165, 17, 235, 254, 116, 41, 240, 114, 193, 108, 150, 37, 23]",True,5eeb5e0931ca2e0729ebc16d,5e53ab77265dcf3af7fedf02,5eeb7657d655892db4beeba8,,1115.0800000177696,f,,j,O_in_Q_vs,0.0,,,,,,,,8.0,1.0,"[-0.33333333333333304, -0.16666666666666602]","[[0, 0], [-0.16666666666666602, 0], [0.16666666666666602, -0.16666666666666602], [0, 0.33333333333333304], [-0.16666666666666602, 0.16666666666666602], [0.16666666666666602, 0], [0.16666666666666602, 0.16666666666666602], [0, -0.16666666666666602]]"
183,,html-keyboard-response,183,1104815,0.0-4.0-5.0-1.0,f078aa2862041786868ef9f2ad23336df49386eb98fe8259951830bdf7c3dbfd,5e53ab77265dcf3af7fedf02,"[52, 164, 254, 182, 102, 180, 30, 1, 2, 34, 81, 239, 102, 57, 59, 204, 224, 48, 20, 165, 17, 235, 254, 116, 41, 240, 114, 193, 108, 150, 37, 23]",True,5eeb5e0931ca2e0729ebc16d,5e53ab77265dcf3af7fedf02,5eeb7657d655892db4beeba8,,,,,,,,,"<div style=""width:150px;height:56px;border:0px;font-size:30px;text-align:center"">wrong.</div>",,,,,,,,,
184,,p5vs_yn,184,1105944,0.0-4.0-5.0-0.1,f078aa2862041786868ef9f2ad23336df49386eb98fe8259951830bdf7c3dbfd,5e53ab77265dcf3af7fedf02,"[52, 164, 254, 182, 102, 180, 30, 1, 2, 34, 81, 239, 102, 57, 59, 204, 224, 48, 20, 165, 17, 235, 254, 116, 41, 240, 114, 193, 108, 150, 37, 23]",True,5eeb5e0931ca2e0729ebc16d,5e53ab77265dcf3af7fedf02,5eeb7657d655892db4beeba8,,623.9449999993667,j,,j,O_in_Q_vs,1.0,,,,,,,,1.0,1.0,"[-0.30000000000000004, -0.30000000000000004]","[[-0.30000000000000004, 0.30000000000000004]]"
185,,html-keyboard-response,185,1106948,0.0-4.0-5.0-1.1,f078aa2862041786868ef9f2ad23336df49386eb98fe8259951830bdf7c3dbfd,5e53ab77265dcf3af7fedf02,"[52, 164, 254, 182, 102, 180, 30, 1, 2, 34, 81, 239, 102, 57, 59, 204, 224, 48, 20, 165, 17, 235, 254, 116, 41, 240, 114, 193, 108, 150, 37, 23]",True,5eeb5e0931ca2e0729ebc16d,5e53ab77265dcf3af7fedf02,5eeb7657d655892db4beeba8,,,,,,,,,"<div style=""width:150px;height:56px;font-size:30px;text-align:center;"">correct!</div>",,,,,,,,,
186,,p5vs_yn,186,1108409,0.0-4.0-5.0-0.2,f078aa2862041786868ef9f2ad23336df49386eb98fe8259951830bdf7c3dbfd,5e53ab77265dcf3af7fedf02,"[52, 164, 254, 182, 102, 180, 30, 1, 2, 34, 81, 239, 102, 57, 59, 204, 224, 48, 20, 165, 17, 235, 254, 116, 41, 240, 114, 193, 108, 150, 37, 23]",True,5eeb5e0931ca2e0729ebc16d,5e53ab77265dcf3af7fedf02,5eeb7657d655892db4beeba8,,950.7600000069942,f,,f,O_in_Q_vs,1.0,,,,,,,,2.0,0.0,"[-0.30000000000000004, 0.30000000000000004]","[[0.30000000000000004, 0.099999999999999], [0.099999999999999, 0.30000000000000004]]"
187,,html-keyboard-response,187,1109413,0.0-4.0-5.0-1.2,f078aa2862041786868ef9f2ad23336df49386eb98fe8259951830bdf7c3dbfd,5e53ab77265dcf3af7fedf02,"[52, 164, 254, 182, 102, 180, 30, 1, 2, 34, 81, 239, 102, 57, 59, 204, 224, 48, 20, 165, 17, 235, 254, 116, 41, 240, 114, 193, 108, 150, 37, 23]",True,5eeb5e0931ca2e0729ebc16d,5e53ab77265dcf3af7fedf02,5eeb7657d655892db4beeba8,,,,,,,,,"<div style=""width:150px;height:56px;font-size:30px;text-align:center;"">correct!</div>",,,,,,,,,
188,,p5vs_yn,188,1110575,0.0-4.0-5.0-0.3,f078aa2862041786868ef9f2ad23336df49386eb98fe8259951830bdf7c3dbfd,5e53ab77265dcf3af7fedf02,"[52, 164, 254, 182, 102, 180, 30, 1, 2, 34, 81, 239, 102, 57, 59, 204, 224, 48, 20, 165, 17, 235, 254, 116, 41, 240, 114, 193, 108, 150, 37, 23]",True,5eeb5e0931ca2e0729ebc16d,5e53ab77265dcf3af7fedf02,5eeb7657d655892db4beeba8,,645.394999999553,f,,f,O_in_Q_vs,1.0,,,,,,,,4.0,0.0,"[0.16666666666666602, -0.33333333333333304]","[[0, -0.16666666666666602], [-0.16666666666666602, 0.16666666666666602], [-0.16666666666666602, 0], [0, 0.33333333333333304]]"
189,,html-keyboard-response,189,1111581,0.0-4.0-5.0-1.3,f078aa2862041786868ef9f2ad23336df49386eb98fe8259951830bdf7c3dbfd,5e53ab77265dcf3af7fedf02,"[52, 164, 254, 182, 102, 180, 30, 1, 2, 34, 81, 239, 102, 57, 59, 204, 224, 48, 20, 165, 17, 235, 254, 116, 41, 240, 114, 193, 108, 150, 37, 23]",True,5eeb5e0931ca2e0729ebc16d,5e53ab77265dcf3af7fedf02,5eeb7657d655892db4beeba8,,,,,,,,,"<div style=""width:150px;height:56px;font-size:30px;text-align:center;"">correct!</div>",,,,,,,,,
190,,p5vs_yn,190,1112792,0.0-4.0-5.0-0.4,f078aa2862041786868ef9f2ad23336df49386eb98fe8259951830bdf7c3dbfd,5e53ab77265dcf3af7fedf02,"[52, 164, 254, 182, 102, 180, 30, 1, 2, 34, 81, 239, 102, 57, 59, 204, 224, 48, 20, 165, 17, 235, 254, 116, 41, 240, 114, 193, 108, 150, 37, 23]",True,5eeb5e0931ca2e0729ebc16d,5e53ab77265dcf3af7fedf02,5eeb7657d655892db4beeba8,,697.0399999991059,j,,j,O_in_Q_vs,1.0,,,,,,,,2.0,1.0,"[-0.099999999999999, -0.099999999999999]","[[0.30000000000000004, -0.099999999999999], [-0.30000000000000004, -0.099999999999999]]"
191,,html-keyboard-response,191,1113795,0.0-4.0-5.0-1.4,f078aa2862041786868ef9f2ad23336df49386eb98fe8259951830bdf7c3dbfd,5e53ab77265dcf3af7fedf02,"[52, 164, 254, 182, 102, 180, 30, 1, 2, 34, 81, 239, 102, 57, 59, 204, 224, 48, 20, 165, 17, 235, 254, 116, 41, 240, 114, 193, 108, 150, 37, 23]",True,5eeb5e0931ca2e0729ebc16d,5e53ab77265dcf3af7fedf02,5eeb7657d655892db4beeba8,,,,,,,,,"<div style=""width:150px;height:56px;font-size:30px;text-align:center;"">correct!</div>",,,,,,,,,
192,,p5vs_yn,192,1115908,0.0-4.0-5.0-0.5,f078aa2862041786868ef9f2ad23336df49386eb98fe8259951830bdf7c3dbfd,5e53ab77265dcf3af7fedf02,"[52, 164, 254, 182, 102, 180, 30, 1, 2, 34, 81, 239, 102, 57, 59, 204, 224, 48, 20, 165, 17, 235, 254, 116, 41, 240, 114, 193, 108, 150, 37, 23]",True,5eeb5e0931ca2e0729ebc16d,5e53ab77265dcf3af7fedf02,5eeb7657d655892db4beeba8,,1596.6699999989942,j,,j,O_in_Q_vs,1.0,,,,,,,,4.0,1.0,"[-0.33333333333333304, 0]","[[0.33333333333333304, 0.33333333333333304], [0.16666666666666602, -0.33333333333333304], [0.16666666666666602, 0.16666666666666602], [0.16666666666666602, 0]]"
193,,html-keyboard-response,193,1116912,0.0-4.0-5.0-1.5,f078aa2862041786868ef9f2ad23336df49386eb98fe8259951830bdf7c3dbfd,5e53ab77265dcf3af7fedf02,"[52, 164, 254, 182, 102, 180, 30, 1, 2, 34, 81, 239, 102, 57, 59, 204, 224, 48, 20, 165, 17, 235, 254, 116, 41, 240, 114, 193, 108, 150, 37, 23]",True,5eeb5e0931ca2e0729ebc16d,5e53ab77265dcf3af7fedf02,5eeb7657d655892db4beeba8,,,,,,,,,"<div style=""width:150px;height:56px;font-size:30px;text-align:center;"">correct!</div>",,,,,,,,,
194,,p5vs_yn,194,1118509,0.0-4.0-5.0-0.6,f078aa2862041786868ef9f2ad23336df49386eb98fe8259951830bdf7c3dbfd,5e53ab77265dcf3af7fedf02,"[52, 164, 254, 182, 102, 180, 30, 1, 2, 34, 81, 239, 102, 57, 59, 204, 224, 48, 20, 165, 17, 235, 254, 116, 41, 240, 114, 193, 108, 150, 37, 23]",True,5eeb5e0931ca2e0729ebc16d,5e53ab77265dcf3af7fedf02,5eeb7657d655892db4beeba8,,1082.9650000086986,f,,f,O_in_Q_vs,1.0,,,,,,,,1.0,0.0,"[0.099999999999999, -0.30000000000000004]","[[0.30000000000000004, 0.30000000000000004]]"
195,,html-keyboard-response,195,1119511,0.0-4.0-5.0-1.6,f078aa2862041786868ef9f2ad23336df49386eb98fe8259951830bdf7c3dbfd,5e53ab77265dcf3af7fedf02,"[52, 164, 254, 182, 102, 180, 30, 1, 2, 34, 81, 239, 102, 57, 59, 204, 224, 48, 20, 165, 17, 235, 254, 116, 41, 240, 114, 193, 108, 150, 37, 23]",True,5eeb5e0931ca2e0729ebc16d,5e53ab77265dcf3af7fedf02,5eeb7657d655892db4beeba8,,,,,,,,,"<div style=""width:150px;height:56px;font-size:30px;text-align:center;"">correct!</div>",,,,,,,,,
196,,p5vs_yn,196,1121524,0.0-4.0-5.0-0.7,f078aa2862041786868ef9f2ad23336df49386eb98fe8259951830bdf7c3dbfd,5e53ab77265dcf3af7fedf02,"[52, 164, 254, 182, 102, 180, 30, 1, 2, 34, 81, 239, 102, 57, 59, 204, 224, 48, 20, 165, 17, 235, 254, 116, 41, 240, 114, 193, 108, 150, 37, 23]",True,5eeb5e0931ca2e0729ebc16d,5e53ab77265dcf3af7fedf02,5eeb7657d655892db4beeba8,,1503.854999988107,f,,f,O_in_Q_vs,1.0,,,,,,,,8.0,0.0,"[-0.16666666666666602, -0.16666666666666602]","[[0.16666666666666602, 0.33333333333333304], [-0.33333333333333304, 0.16666666666666602], [0.16666666666666602, 0.16666666666666602], [-0.33333333333333304, -0.33333333333333304], [0, -0.33333333333333304], [-0.16666666666666602, -0.33333333333333304], [0, 0.16666666666666602], [0.33333333333333304, -0.16666666666666602]]"
197,,html-keyboard-response,197,1122529,0.0-4.0-5.0-1.7,f078aa2862041786868ef9f2ad23336df49386eb98fe8259951830bdf7c3dbfd,5e53ab77265dcf3af7fedf02,"[52, 164, 254, 182, 102, 180, 30, 1, 2, 34, 81, 239, 102, 57, 59, 204, 224, 48, 20, 165, 17, 235, 254, 116, 41, 240, 114, 193, 108, 150, 37, 23]",True,5eeb5e0931ca2e0729ebc16d,5e53ab77265dcf3af7fedf02,5eeb7657d655892db4beeba8,,,,,,,,,"<div style=""width:150px;height:56px;font-size:30px;text-align:center;"">correct!</div>",,,,,,,,,
