success,trial_type,trial_index,time_elapsed,internal_node_id,protocol_sum,subject_identifier,subject_sum,STUDY_ID,PROLIFIC_PID,SESSION_ID,followed_instructions,set_size,target_present,RT,response,target_position,distractor_positions,jitter,correct_response,test_part,target,correct,rt,stimulus,key_press,which_stimulus,SOA,confidence,conf_RT,responses,question_order
1.0,fullscreen,0,3142,0.0-0.0,f078aa2862041786868ef9f2ad23336df49386eb98fe8259951830bdf7c3dbfd,5c70852d7826350001565ce4,"[192, 44, 251, 45, 1, 205, 243, 144, 177, 166, 66, 191, 122, 155, 255, 84, 201, 83, 119, 247, 98, 211, 78, 28, 36, 11, 103, 7, 181, 221, 141, 112]",5ef0634f4ba8c51f665b2209,5c70852d7826350001565ce4,5ef07ea42d63da59e8d52c0b,True,,,,,,,,,,,,,,,,,,,,
,p5Text,1,12061,0.0-1.0,f078aa2862041786868ef9f2ad23336df49386eb98fe8259951830bdf7c3dbfd,5c70852d7826350001565ce4,"[192, 44, 251, 45, 1, 205, 243, 144, 177, 166, 66, 191, 122, 155, 255, 84, 201, 83, 119, 247, 98, 211, 78, 28, 36, 11, 103, 7, 181, 221, 141, 112]",5ef0634f4ba8c51f665b2209,5c70852d7826350001565ce4,5ef07ea42d63da59e8d52c0b,True,,,,,,,,,,,,,,,,,,,,
,p5Text,2,24600,0.0-2.0-0.0,f078aa2862041786868ef9f2ad23336df49386eb98fe8259951830bdf7c3dbfd,5c70852d7826350001565ce4,"[192, 44, 251, 45, 1, 205, 243, 144, 177, 166, 66, 191, 122, 155, 255, 84, 201, 83, 119, 247, 98, 211, 78, 28, 36, 11, 103, 7, 181, 221, 141, 112]",5ef0634f4ba8c51f665b2209,5c70852d7826350001565ce4,5ef07ea42d63da59e8d52c0b,True,,,,,,,,,,,,,,,,,,,,
,p5vs_yn,3,27160,0.0-2.0-1.0-0.0-0.0,f078aa2862041786868ef9f2ad23336df49386eb98fe8259951830bdf7c3dbfd,5c70852d7826350001565ce4,"[192, 44, 251, 45, 1, 205, 243, 144, 177, 166, 66, 191, 122, 155, 255, 84, 201, 83, 119, 247, 98, 211, 78, 28, 36, 11, 103, 7, 181, 221, 141, 112]",5ef0634f4ba8c51f665b2209,5c70852d7826350001565ce4,5ef07ea42d63da59e8d52c0b,True,3.0,1.0,1789.9015602242798,j,"[-0.099999999999999, 0.099999999999999]","[[0.30000000000000004, -0.30000000000000004], [0.099999999999999, 0.30000000000000004], [0.099999999999999, -0.30000000000000004]]",259.18343977537006,j,practice_O_in_Q,2.0,1.0,,,,,,,,,
,html-keyboard-response,4,28163,0.0-2.0-1.0-0.0-1.0,f078aa2862041786868ef9f2ad23336df49386eb98fe8259951830bdf7c3dbfd,5c70852d7826350001565ce4,"[192, 44, 251, 45, 1, 205, 243, 144, 177, 166, 66, 191, 122, 155, 255, 84, 201, 83, 119, 247, 98, 211, 78, 28, 36, 11, 103, 7, 181, 221, 141, 112]",5ef0634f4ba8c51f665b2209,5c70852d7826350001565ce4,5ef07ea42d63da59e8d52c0b,True,,,,,,,,,,,,,"<div style=""width:150px;height:56px;font-size:30px;text-align:center;"">correct!</div>",,,,,,,
,p5vs_yn,5,29842,0.0-2.0-1.0-0.0-0.1,f078aa2862041786868ef9f2ad23336df49386eb98fe8259951830bdf7c3dbfd,5c70852d7826350001565ce4,"[192, 44, 251, 45, 1, 205, 243, 144, 177, 166, 66, 191, 122, 155, 255, 84, 201, 83, 119, 247, 98, 211, 78, 28, 36, 11, 103, 7, 181, 221, 141, 112]",5ef0634f4ba8c51f665b2209,5c70852d7826350001565ce4,5ef07ea42d63da59e8d52c0b,True,3.0,0.0,892.656259577052,f,"[0.30000000000000004, -0.099999999999999]","[[0.30000000000000004, -0.30000000000000004], [0.099999999999999, -0.30000000000000004], [-0.099999999999999, 0.099999999999999]]",283.378740423359,f,practice_O_in_Q,2.0,1.0,,,,,,,,,
,html-keyboard-response,6,30843,0.0-2.0-1.0-0.0-1.1,f078aa2862041786868ef9f2ad23336df49386eb98fe8259951830bdf7c3dbfd,5c70852d7826350001565ce4,"[192, 44, 251, 45, 1, 205, 243, 144, 177, 166, 66, 191, 122, 155, 255, 84, 201, 83, 119, 247, 98, 211, 78, 28, 36, 11, 103, 7, 181, 221, 141, 112]",5ef0634f4ba8c51f665b2209,5c70852d7826350001565ce4,5ef07ea42d63da59e8d52c0b,True,,,,,,,,,,,,,"<div style=""width:150px;height:56px;font-size:30px;text-align:center;"">correct!</div>",,,,,,,
,p5vs_yn,7,32430,0.0-2.0-1.0-0.0-0.2,f078aa2862041786868ef9f2ad23336df49386eb98fe8259951830bdf7c3dbfd,5c70852d7826350001565ce4,"[192, 44, 251, 45, 1, 205, 243, 144, 177, 166, 66, 191, 122, 155, 255, 84, 201, 83, 119, 247, 98, 211, 78, 28, 36, 11, 103, 7, 181, 221, 141, 112]",5ef0634f4ba8c51f665b2209,5c70852d7826350001565ce4,5ef07ea42d63da59e8d52c0b,True,3.0,0.0,718.7183483420085,f,"[-0.30000000000000004, 0.30000000000000004]","[[-0.30000000000000004, 0.099999999999999], [-0.099999999999999, -0.30000000000000004], [0.099999999999999, -0.30000000000000004]]",359.40165165811777,f,practice_O_in_Q,2.0,1.0,,,,,,,,,
,html-keyboard-response,8,33432,0.0-2.0-1.0-0.0-1.2,f078aa2862041786868ef9f2ad23336df49386eb98fe8259951830bdf7c3dbfd,5c70852d7826350001565ce4,"[192, 44, 251, 45, 1, 205, 243, 144, 177, 166, 66, 191, 122, 155, 255, 84, 201, 83, 119, 247, 98, 211, 78, 28, 36, 11, 103, 7, 181, 221, 141, 112]",5ef0634f4ba8c51f665b2209,5c70852d7826350001565ce4,5ef07ea42d63da59e8d52c0b,True,,,,,,,,,,,,,"<div style=""width:150px;height:56px;font-size:30px;text-align:center;"">correct!</div>",,,,,,,
,p5vs_yn,9,35101,0.0-2.0-1.0-0.0-0.3,f078aa2862041786868ef9f2ad23336df49386eb98fe8259951830bdf7c3dbfd,5c70852d7826350001565ce4,"[192, 44, 251, 45, 1, 205, 243, 144, 177, 166, 66, 191, 122, 155, 255, 84, 201, 83, 119, 247, 98, 211, 78, 28, 36, 11, 103, 7, 181, 221, 141, 112]",5ef0634f4ba8c51f665b2209,5c70852d7826350001565ce4,5ef07ea42d63da59e8d52c0b,True,3.0,1.0,692.2308759885709,f,"[-0.30000000000000004, 0.30000000000000004]","[[-0.099999999999999, 0.099999999999999], [-0.30000000000000004, -0.099999999999999], [0.099999999999999, -0.099999999999999]]",474.59412401076406,j,practice_O_in_Q,2.0,0.0,,,,,,,,,
,html-keyboard-response,10,36603,0.0-2.0-1.0-0.0-1.3,f078aa2862041786868ef9f2ad23336df49386eb98fe8259951830bdf7c3dbfd,5c70852d7826350001565ce4,"[192, 44, 251, 45, 1, 205, 243, 144, 177, 166, 66, 191, 122, 155, 255, 84, 201, 83, 119, 247, 98, 211, 78, 28, 36, 11, 103, 7, 181, 221, 141, 112]",5ef0634f4ba8c51f665b2209,5c70852d7826350001565ce4,5ef07ea42d63da59e8d52c0b,True,,,,,,,,,,,,,"<div style=""width:150px;height:56px;border:0px;font-size:30px;text-align:center"">wrong.</div>",,,,,,,
,p5vs_yn,11,38189,0.0-2.0-1.1-0.1-0.4,f078aa2862041786868ef9f2ad23336df49386eb98fe8259951830bdf7c3dbfd,5c70852d7826350001565ce4,"[192, 44, 251, 45, 1, 205, 243, 144, 177, 166, 66, 191, 122, 155, 255, 84, 201, 83, 119, 247, 98, 211, 78, 28, 36, 11, 103, 7, 181, 221, 141, 112]",5ef0634f4ba8c51f665b2209,5c70852d7826350001565ce4,5ef07ea42d63da59e8d52c0b,True,3.0,0.0,631.1469156235034,f,"[-0.099999999999999, -0.30000000000000004]","[[0.099999999999999, 0.30000000000000004], [0.30000000000000004, 0.099999999999999], [0.099999999999999, 0.099999999999999]]",451.59308437723666,f,practice_O_in_Q,2.0,1.0,,,,,,,,,
,html-keyboard-response,12,39202,0.0-2.0-1.1-0.1-1.4,f078aa2862041786868ef9f2ad23336df49386eb98fe8259951830bdf7c3dbfd,5c70852d7826350001565ce4,"[192, 44, 251, 45, 1, 205, 243, 144, 177, 166, 66, 191, 122, 155, 255, 84, 201, 83, 119, 247, 98, 211, 78, 28, 36, 11, 103, 7, 181, 221, 141, 112]",5ef0634f4ba8c51f665b2209,5c70852d7826350001565ce4,5ef07ea42d63da59e8d52c0b,True,,,,,,,,,,,,,"<div style=""width:150px;height:56px;font-size:30px;text-align:center;"">correct!</div>",,,,,,,
,p5vs_yn,13,40601,0.0-2.0-1.1-0.1-0.5,f078aa2862041786868ef9f2ad23336df49386eb98fe8259951830bdf7c3dbfd,5c70852d7826350001565ce4,"[192, 44, 251, 45, 1, 205, 243, 144, 177, 166, 66, 191, 122, 155, 255, 84, 201, 83, 119, 247, 98, 211, 78, 28, 36, 11, 103, 7, 181, 221, 141, 112]",5ef0634f4ba8c51f665b2209,5c70852d7826350001565ce4,5ef07ea42d63da59e8d52c0b,True,3.0,1.0,793.3907776905471,j,"[0.30000000000000004, -0.099999999999999]","[[-0.099999999999999, -0.099999999999999], [0.099999999999999, 0.30000000000000004], [0.099999999999999, -0.099999999999999]]",103.26922230888158,j,practice_O_in_Q,2.0,1.0,,,,,,,,,
,html-keyboard-response,14,41604,0.0-2.0-1.1-0.1-1.5,f078aa2862041786868ef9f2ad23336df49386eb98fe8259951830bdf7c3dbfd,5c70852d7826350001565ce4,"[192, 44, 251, 45, 1, 205, 243, 144, 177, 166, 66, 191, 122, 155, 255, 84, 201, 83, 119, 247, 98, 211, 78, 28, 36, 11, 103, 7, 181, 221, 141, 112]",5ef0634f4ba8c51f665b2209,5c70852d7826350001565ce4,5ef07ea42d63da59e8d52c0b,True,,,,,,,,,,,,,"<div style=""width:150px;height:56px;font-size:30px;text-align:center;"">correct!</div>",,,,,,,
,p5vs_yn,15,42703,0.0-2.0-1.1-0.1-0.6,f078aa2862041786868ef9f2ad23336df49386eb98fe8259951830bdf7c3dbfd,5c70852d7826350001565ce4,"[192, 44, 251, 45, 1, 205, 243, 144, 177, 166, 66, 191, 122, 155, 255, 84, 201, 83, 119, 247, 98, 211, 78, 28, 36, 11, 103, 7, 181, 221, 141, 112]",5ef0634f4ba8c51f665b2209,5c70852d7826350001565ce4,5ef07ea42d63da59e8d52c0b,True,3.0,0.0,535.3607015522357,f,"[-0.099999999999999, -0.30000000000000004]","[[0.30000000000000004, 0.099999999999999], [0.30000000000000004, -0.099999999999999], [-0.099999999999999, 0.099999999999999]]",61.66929844766855,f,practice_O_in_Q,2.0,1.0,,,,,,,,,
,html-keyboard-response,16,43706,0.0-2.0-1.1-0.1-1.6,f078aa2862041786868ef9f2ad23336df49386eb98fe8259951830bdf7c3dbfd,5c70852d7826350001565ce4,"[192, 44, 251, 45, 1, 205, 243, 144, 177, 166, 66, 191, 122, 155, 255, 84, 201, 83, 119, 247, 98, 211, 78, 28, 36, 11, 103, 7, 181, 221, 141, 112]",5ef0634f4ba8c51f665b2209,5c70852d7826350001565ce4,5ef07ea42d63da59e8d52c0b,True,,,,,,,,,,,,,"<div style=""width:150px;height:56px;font-size:30px;text-align:center;"">correct!</div>",,,,,,,
,p5vs_yn,17,45212,0.0-2.0-1.1-0.1-0.7,f078aa2862041786868ef9f2ad23336df49386eb98fe8259951830bdf7c3dbfd,5c70852d7826350001565ce4,"[192, 44, 251, 45, 1, 205, 243, 144, 177, 166, 66, 191, 122, 155, 255, 84, 201, 83, 119, 247, 98, 211, 78, 28, 36, 11, 103, 7, 181, 221, 141, 112]",5ef0634f4ba8c51f665b2209,5c70852d7826350001565ce4,5ef07ea42d63da59e8d52c0b,True,3.0,1.0,686.5708985669698,j,"[0.099999999999999, 0.30000000000000004]","[[0.30000000000000004, -0.099999999999999], [0.30000000000000004, -0.30000000000000004], [-0.30000000000000004, 0.099999999999999]]",316.4491014322266,j,practice_O_in_Q,2.0,1.0,,,,,,,,,
,html-keyboard-response,18,46224,0.0-2.0-1.1-0.1-1.7,f078aa2862041786868ef9f2ad23336df49386eb98fe8259951830bdf7c3dbfd,5c70852d7826350001565ce4,"[192, 44, 251, 45, 1, 205, 243, 144, 177, 166, 66, 191, 122, 155, 255, 84, 201, 83, 119, 247, 98, 211, 78, 28, 36, 11, 103, 7, 181, 221, 141, 112]",5ef0634f4ba8c51f665b2209,5c70852d7826350001565ce4,5ef07ea42d63da59e8d52c0b,True,,,,,,,,,,,,,"<div style=""width:150px;height:56px;font-size:30px;text-align:center;"">correct!</div>",,,,,,,
,p5vs_yn,19,48065,0.0-2.0-2.0-0.0,f078aa2862041786868ef9f2ad23336df49386eb98fe8259951830bdf7c3dbfd,5c70852d7826350001565ce4,"[192, 44, 251, 45, 1, 205, 243, 144, 177, 166, 66, 191, 122, 155, 255, 84, 201, 83, 119, 247, 98, 211, 78, 28, 36, 11, 103, 7, 181, 221, 141, 112]",5ef0634f4ba8c51f665b2209,5c70852d7826350001565ce4,5ef07ea42d63da59e8d52c0b,True,8.0,0.0,1024.5372461749866,f,"[0.16666666666666602, -0.33333333333333304]","[[-0.16666666666666602, 0.33333333333333304], [-0.16666666666666602, -0.16666666666666602], [-0.16666666666666602, -0.33333333333333304], [0, -0.33333333333333304], [-0.16666666666666602, 0], [0.16666666666666602, 0.16666666666666602], [0, 0.16666666666666602], [0.33333333333333304, -0.16666666666666602]]",314.2177538247779,f,O_in_Q_vs,2.0,1.0,,,,,,,,,
,html-keyboard-response,20,49067,0.0-2.0-2.0-1.0,f078aa2862041786868ef9f2ad23336df49386eb98fe8259951830bdf7c3dbfd,5c70852d7826350001565ce4,"[192, 44, 251, 45, 1, 205, 243, 144, 177, 166, 66, 191, 122, 155, 255, 84, 201, 83, 119, 247, 98, 211, 78, 28, 36, 11, 103, 7, 181, 221, 141, 112]",5ef0634f4ba8c51f665b2209,5c70852d7826350001565ce4,5ef07ea42d63da59e8d52c0b,True,,,,,,,,,,,,,"<div style=""width:150px;height:56px;font-size:30px;text-align:center;"">correct!</div>",,,,,,,
,p5vs_yn,21,50700,0.0-2.0-2.0-0.1,f078aa2862041786868ef9f2ad23336df49386eb98fe8259951830bdf7c3dbfd,5c70852d7826350001565ce4,"[192, 44, 251, 45, 1, 205, 243, 144, 177, 166, 66, 191, 122, 155, 255, 84, 201, 83, 119, 247, 98, 211, 78, 28, 36, 11, 103, 7, 181, 221, 141, 112]",5ef0634f4ba8c51f665b2209,5c70852d7826350001565ce4,5ef07ea42d63da59e8d52c0b,True,2.0,0.0,808.1233828470431,f,"[-0.099999999999999, -0.30000000000000004]","[[-0.099999999999999, 0.30000000000000004], [-0.30000000000000004, 0.099999999999999]]",323.4366171527654,f,O_in_Q_vs,2.0,1.0,,,,,,,,,
,html-keyboard-response,22,51703,0.0-2.0-2.0-1.1,f078aa2862041786868ef9f2ad23336df49386eb98fe8259951830bdf7c3dbfd,5c70852d7826350001565ce4,"[192, 44, 251, 45, 1, 205, 243, 144, 177, 166, 66, 191, 122, 155, 255, 84, 201, 83, 119, 247, 98, 211, 78, 28, 36, 11, 103, 7, 181, 221, 141, 112]",5ef0634f4ba8c51f665b2209,5c70852d7826350001565ce4,5ef07ea42d63da59e8d52c0b,True,,,,,,,,,,,,,"<div style=""width:150px;height:56px;font-size:30px;text-align:center;"">correct!</div>",,,,,,,
,p5vs_yn,23,53250,0.0-2.0-2.0-0.2,f078aa2862041786868ef9f2ad23336df49386eb98fe8259951830bdf7c3dbfd,5c70852d7826350001565ce4,"[192, 44, 251, 45, 1, 205, 243, 144, 177, 166, 66, 191, 122, 155, 255, 84, 201, 83, 119, 247, 98, 211, 78, 28, 36, 11, 103, 7, 181, 221, 141, 112]",5ef0634f4ba8c51f665b2209,5c70852d7826350001565ce4,5ef07ea42d63da59e8d52c0b,True,1.0,0.0,547.3847025141367,f,"[-0.30000000000000004, -0.30000000000000004]","[[-0.099999999999999, -0.30000000000000004]]",496.5202974854037,f,O_in_Q_vs,2.0,1.0,,,,,,,,,
,html-keyboard-response,24,54263,0.0-2.0-2.0-1.2,f078aa2862041786868ef9f2ad23336df49386eb98fe8259951830bdf7c3dbfd,5c70852d7826350001565ce4,"[192, 44, 251, 45, 1, 205, 243, 144, 177, 166, 66, 191, 122, 155, 255, 84, 201, 83, 119, 247, 98, 211, 78, 28, 36, 11, 103, 7, 181, 221, 141, 112]",5ef0634f4ba8c51f665b2209,5c70852d7826350001565ce4,5ef07ea42d63da59e8d52c0b,True,,,,,,,,,,,,,"<div style=""width:150px;height:56px;font-size:30px;text-align:center;"">correct!</div>",,,,,,,
,p5vs_yn,25,55722,0.0-2.0-2.0-0.3,f078aa2862041786868ef9f2ad23336df49386eb98fe8259951830bdf7c3dbfd,5c70852d7826350001565ce4,"[192, 44, 251, 45, 1, 205, 243, 144, 177, 166, 66, 191, 122, 155, 255, 84, 201, 83, 119, 247, 98, 211, 78, 28, 36, 11, 103, 7, 181, 221, 141, 112]",5ef0634f4ba8c51f665b2209,5c70852d7826350001565ce4,5ef07ea42d63da59e8d52c0b,True,8.0,1.0,720.4078335635131,j,"[0.33333333333333304, 0.16666666666666602]","[[0.16666666666666602, 0], [0.33333333333333304, -0.33333333333333304], [-0.33333333333333304, 0.33333333333333304], [-0.16666666666666602, -0.33333333333333304], [0, -0.16666666666666602], [-0.33333333333333304, 0.16666666666666602], [0.33333333333333304, -0.16666666666666602], [0.16666666666666602, -0.16666666666666602]]",236.58716643694788,j,O_in_Q_vs,2.0,1.0,,,,,,,,,
,html-keyboard-response,26,56726,0.0-2.0-2.0-1.3,f078aa2862041786868ef9f2ad23336df49386eb98fe8259951830bdf7c3dbfd,5c70852d7826350001565ce4,"[192, 44, 251, 45, 1, 205, 243, 144, 177, 166, 66, 191, 122, 155, 255, 84, 201, 83, 119, 247, 98, 211, 78, 28, 36, 11, 103, 7, 181, 221, 141, 112]",5ef0634f4ba8c51f665b2209,5c70852d7826350001565ce4,5ef07ea42d63da59e8d52c0b,True,,,,,,,,,,,,,"<div style=""width:150px;height:56px;font-size:30px;text-align:center;"">correct!</div>",,,,,,,
,p5vs_yn,27,58092,0.0-2.0-2.0-0.4,f078aa2862041786868ef9f2ad23336df49386eb98fe8259951830bdf7c3dbfd,5c70852d7826350001565ce4,"[192, 44, 251, 45, 1, 205, 243, 144, 177, 166, 66, 191, 122, 155, 255, 84, 201, 83, 119, 247, 98, 211, 78, 28, 36, 11, 103, 7, 181, 221, 141, 112]",5ef0634f4ba8c51f665b2209,5c70852d7826350001565ce4,5ef07ea42d63da59e8d52c0b,True,4.0,0.0,734.3838153719844,f,"[-0.33333333333333304, 0]","[[0.16666666666666602, 0], [-0.16666666666666602, 0.16666666666666602], [-0.33333333333333304, 0.33333333333333304], [0.16666666666666602, -0.16666666666666602]]",129.34118462726474,f,O_in_Q_vs,2.0,1.0,,,,,,,,,
,html-keyboard-response,28,59094,0.0-2.0-2.0-1.4,f078aa2862041786868ef9f2ad23336df49386eb98fe8259951830bdf7c3dbfd,5c70852d7826350001565ce4,"[192, 44, 251, 45, 1, 205, 243, 144, 177, 166, 66, 191, 122, 155, 255, 84, 201, 83, 119, 247, 98, 211, 78, 28, 36, 11, 103, 7, 181, 221, 141, 112]",5ef0634f4ba8c51f665b2209,5c70852d7826350001565ce4,5ef07ea42d63da59e8d52c0b,True,,,,,,,,,,,,,"<div style=""width:150px;height:56px;font-size:30px;text-align:center;"">correct!</div>",,,,,,,
,p5vs_yn,29,60710,0.0-2.0-2.0-0.5,f078aa2862041786868ef9f2ad23336df49386eb98fe8259951830bdf7c3dbfd,5c70852d7826350001565ce4,"[192, 44, 251, 45, 1, 205, 243, 144, 177, 166, 66, 191, 122, 155, 255, 84, 201, 83, 119, 247, 98, 211, 78, 28, 36, 11, 103, 7, 181, 221, 141, 112]",5ef0634f4ba8c51f665b2209,5c70852d7826350001565ce4,5ef07ea42d63da59e8d52c0b,True,4.0,1.0,758.7603645442869,j,"[-0.16666666666666602, -0.16666666666666602]","[[0.16666666666666602, 0.16666666666666602], [0.16666666666666602, -0.33333333333333304], [0.33333333333333304, 0.16666666666666602], [0, 0.33333333333333304]]",354.13963545579463,j,O_in_Q_vs,2.0,1.0,,,,,,,,,
,html-keyboard-response,30,61712,0.0-2.0-2.0-1.5,f078aa2862041786868ef9f2ad23336df49386eb98fe8259951830bdf7c3dbfd,5c70852d7826350001565ce4,"[192, 44, 251, 45, 1, 205, 243, 144, 177, 166, 66, 191, 122, 155, 255, 84, 201, 83, 119, 247, 98, 211, 78, 28, 36, 11, 103, 7, 181, 221, 141, 112]",5ef0634f4ba8c51f665b2209,5c70852d7826350001565ce4,5ef07ea42d63da59e8d52c0b,True,,,,,,,,,,,,,"<div style=""width:150px;height:56px;font-size:30px;text-align:center;"">correct!</div>",,,,,,,
,p5vs_yn,31,63431,0.0-2.0-2.0-0.6,f078aa2862041786868ef9f2ad23336df49386eb98fe8259951830bdf7c3dbfd,5c70852d7826350001565ce4,"[192, 44, 251, 45, 1, 205, 243, 144, 177, 166, 66, 191, 122, 155, 255, 84, 201, 83, 119, 247, 98, 211, 78, 28, 36, 11, 103, 7, 181, 221, 141, 112]",5ef0634f4ba8c51f665b2209,5c70852d7826350001565ce4,5ef07ea42d63da59e8d52c0b,True,2.0,1.0,729.9721729423254,j,"[-0.099999999999999, -0.099999999999999]","[[-0.099999999999999, -0.30000000000000004], [0.099999999999999, -0.099999999999999]]",486.3078270573169,j,O_in_Q_vs,2.0,1.0,,,,,,,,,
,html-keyboard-response,32,64433,0.0-2.0-2.0-1.6,f078aa2862041786868ef9f2ad23336df49386eb98fe8259951830bdf7c3dbfd,5c70852d7826350001565ce4,"[192, 44, 251, 45, 1, 205, 243, 144, 177, 166, 66, 191, 122, 155, 255, 84, 201, 83, 119, 247, 98, 211, 78, 28, 36, 11, 103, 7, 181, 221, 141, 112]",5ef0634f4ba8c51f665b2209,5c70852d7826350001565ce4,5ef07ea42d63da59e8d52c0b,True,,,,,,,,,,,,,"<div style=""width:150px;height:56px;font-size:30px;text-align:center;"">correct!</div>",,,,,,,
,p5vs_yn,33,65887,0.0-2.0-2.0-0.7,f078aa2862041786868ef9f2ad23336df49386eb98fe8259951830bdf7c3dbfd,5c70852d7826350001565ce4,"[192, 44, 251, 45, 1, 205, 243, 144, 177, 166, 66, 191, 122, 155, 255, 84, 201, 83, 119, 247, 98, 211, 78, 28, 36, 11, 103, 7, 181, 221, 141, 112]",5ef0634f4ba8c51f665b2209,5c70852d7826350001565ce4,5ef07ea42d63da59e8d52c0b,True,1.0,1.0,765.5643229800335,j,"[0.30000000000000004, -0.30000000000000004]","[[0.099999999999999, -0.099999999999999]]",185.99567702040076,j,O_in_Q_vs,2.0,1.0,,,,,,,,,
,html-keyboard-response,34,66890,0.0-2.0-2.0-1.7,f078aa2862041786868ef9f2ad23336df49386eb98fe8259951830bdf7c3dbfd,5c70852d7826350001565ce4,"[192, 44, 251, 45, 1, 205, 243, 144, 177, 166, 66, 191, 122, 155, 255, 84, 201, 83, 119, 247, 98, 211, 78, 28, 36, 11, 103, 7, 181, 221, 141, 112]",5ef0634f4ba8c51f665b2209,5c70852d7826350001565ce4,5ef07ea42d63da59e8d52c0b,True,,,,,,,,,,,,,"<div style=""width:150px;height:56px;font-size:30px;text-align:center;"">correct!</div>",,,,,,,
,p5vs_yn,35,69125,0.0-2.0-2.0-0.8,f078aa2862041786868ef9f2ad23336df49386eb98fe8259951830bdf7c3dbfd,5c70852d7826350001565ce4,"[192, 44, 251, 45, 1, 205, 243, 144, 177, 166, 66, 191, 122, 155, 255, 84, 201, 83, 119, 247, 98, 211, 78, 28, 36, 11, 103, 7, 181, 221, 141, 112]",5ef0634f4ba8c51f665b2209,5c70852d7826350001565ce4,5ef07ea42d63da59e8d52c0b,True,8.0,0.0,1297.8496732648637,f,"[0.33333333333333304, 0.33333333333333304]","[[-0.33333333333333304, -0.16666666666666602], [0, 0.33333333333333304], [-0.33333333333333304, 0.16666666666666602], [-0.16666666666666602, -0.33333333333333304], [-0.33333333333333304, -0.33333333333333304], [-0.33333333333333304, 0], [0.16666666666666602, -0.16666666666666602], [-0.33333333333333304, 0.33333333333333304]]",434.88032673485577,f,O_in_Q_vs,2.0,1.0,,,,,,,,,
,html-keyboard-response,36,70128,0.0-2.0-2.0-1.8,f078aa2862041786868ef9f2ad23336df49386eb98fe8259951830bdf7c3dbfd,5c70852d7826350001565ce4,"[192, 44, 251, 45, 1, 205, 243, 144, 177, 166, 66, 191, 122, 155, 255, 84, 201, 83, 119, 247, 98, 211, 78, 28, 36, 11, 103, 7, 181, 221, 141, 112]",5ef0634f4ba8c51f665b2209,5c70852d7826350001565ce4,5ef07ea42d63da59e8d52c0b,True,,,,,,,,,,,,,"<div style=""width:150px;height:56px;font-size:30px;text-align:center;"">correct!</div>",,,,,,,
,p5vs_yn,37,71723,0.0-2.0-2.0-0.9,f078aa2862041786868ef9f2ad23336df49386eb98fe8259951830bdf7c3dbfd,5c70852d7826350001565ce4,"[192, 44, 251, 45, 1, 205, 243, 144, 177, 166, 66, 191, 122, 155, 255, 84, 201, 83, 119, 247, 98, 211, 78, 28, 36, 11, 103, 7, 181, 221, 141, 112]",5ef0634f4ba8c51f665b2209,5c70852d7826350001565ce4,5ef07ea42d63da59e8d52c0b,True,4.0,0.0,672.4286597236642,f,"[-0.16666666666666602, 0.33333333333333304]","[[-0.16666666666666602, 0], [0.16666666666666602, 0.16666666666666602], [-0.33333333333333304, 0.16666666666666602], [-0.16666666666666602, 0.16666666666666602]]",421.1713402764872,f,O_in_Q_vs,2.0,1.0,,,,,,,,,
,html-keyboard-response,38,72725,0.0-2.0-2.0-1.9,f078aa2862041786868ef9f2ad23336df49386eb98fe8259951830bdf7c3dbfd,5c70852d7826350001565ce4,"[192, 44, 251, 45, 1, 205, 243, 144, 177, 166, 66, 191, 122, 155, 255, 84, 201, 83, 119, 247, 98, 211, 78, 28, 36, 11, 103, 7, 181, 221, 141, 112]",5ef0634f4ba8c51f665b2209,5c70852d7826350001565ce4,5ef07ea42d63da59e8d52c0b,True,,,,,,,,,,,,,"<div style=""width:150px;height:56px;font-size:30px;text-align:center;"">correct!</div>",,,,,,,
,p5vs_yn,39,73998,0.0-2.0-2.0-0.10,f078aa2862041786868ef9f2ad23336df49386eb98fe8259951830bdf7c3dbfd,5c70852d7826350001565ce4,"[192, 44, 251, 45, 1, 205, 243, 144, 177, 166, 66, 191, 122, 155, 255, 84, 201, 83, 119, 247, 98, 211, 78, 28, 36, 11, 103, 7, 181, 221, 141, 112]",5ef0634f4ba8c51f665b2209,5c70852d7826350001565ce4,5ef07ea42d63da59e8d52c0b,True,2.0,0.0,601.8415862608963,f,"[0.099999999999999, -0.30000000000000004]","[[0.30000000000000004, 0.099999999999999], [0.099999999999999, 0.30000000000000004]]",169.65841373894364,f,O_in_Q_vs,2.0,1.0,,,,,,,,,
,html-keyboard-response,40,75000,0.0-2.0-2.0-1.10,f078aa2862041786868ef9f2ad23336df49386eb98fe8259951830bdf7c3dbfd,5c70852d7826350001565ce4,"[192, 44, 251, 45, 1, 205, 243, 144, 177, 166, 66, 191, 122, 155, 255, 84, 201, 83, 119, 247, 98, 211, 78, 28, 36, 11, 103, 7, 181, 221, 141, 112]",5ef0634f4ba8c51f665b2209,5c70852d7826350001565ce4,5ef07ea42d63da59e8d52c0b,True,,,,,,,,,,,,,"<div style=""width:150px;height:56px;font-size:30px;text-align:center;"">correct!</div>",,,,,,,
,p5vs_yn,41,76506,0.0-2.0-2.0-0.11,f078aa2862041786868ef9f2ad23336df49386eb98fe8259951830bdf7c3dbfd,5c70852d7826350001565ce4,"[192, 44, 251, 45, 1, 205, 243, 144, 177, 166, 66, 191, 122, 155, 255, 84, 201, 83, 119, 247, 98, 211, 78, 28, 36, 11, 103, 7, 181, 221, 141, 112]",5ef0634f4ba8c51f665b2209,5c70852d7826350001565ce4,5ef07ea42d63da59e8d52c0b,True,2.0,1.0,616.4268102702335,j,"[0.099999999999999, 0.30000000000000004]","[[0.30000000000000004, -0.099999999999999], [-0.30000000000000004, 0.099999999999999]]",386.9981897296384,j,O_in_Q_vs,2.0,1.0,,,,,,,,,
,html-keyboard-response,42,77519,0.0-2.0-2.0-1.11,f078aa2862041786868ef9f2ad23336df49386eb98fe8259951830bdf7c3dbfd,5c70852d7826350001565ce4,"[192, 44, 251, 45, 1, 205, 243, 144, 177, 166, 66, 191, 122, 155, 255, 84, 201, 83, 119, 247, 98, 211, 78, 28, 36, 11, 103, 7, 181, 221, 141, 112]",5ef0634f4ba8c51f665b2209,5c70852d7826350001565ce4,5ef07ea42d63da59e8d52c0b,True,,,,,,,,,,,,,"<div style=""width:150px;height:56px;font-size:30px;text-align:center;"">correct!</div>",,,,,,,
,p5vs_yn,43,78633,0.0-2.0-2.0-0.12,f078aa2862041786868ef9f2ad23336df49386eb98fe8259951830bdf7c3dbfd,5c70852d7826350001565ce4,"[192, 44, 251, 45, 1, 205, 243, 144, 177, 166, 66, 191, 122, 155, 255, 84, 201, 83, 119, 247, 98, 211, 78, 28, 36, 11, 103, 7, 181, 221, 141, 112]",5ef0634f4ba8c51f665b2209,5c70852d7826350001565ce4,5ef07ea42d63da59e8d52c0b,True,1.0,1.0,600.8073537404998,j,"[0.099999999999999, -0.099999999999999]","[[0.099999999999999, 0.099999999999999]]",10.9676462598145,j,O_in_Q_vs,2.0,1.0,,,,,,,,,
,html-keyboard-response,44,79635,0.0-2.0-2.0-1.12,f078aa2862041786868ef9f2ad23336df49386eb98fe8259951830bdf7c3dbfd,5c70852d7826350001565ce4,"[192, 44, 251, 45, 1, 205, 243, 144, 177, 166, 66, 191, 122, 155, 255, 84, 201, 83, 119, 247, 98, 211, 78, 28, 36, 11, 103, 7, 181, 221, 141, 112]",5ef0634f4ba8c51f665b2209,5c70852d7826350001565ce4,5ef07ea42d63da59e8d52c0b,True,,,,,,,,,,,,,"<div style=""width:150px;height:56px;font-size:30px;text-align:center;"">correct!</div>",,,,,,,
,p5vs_yn,45,81131,0.0-2.0-2.0-0.13,f078aa2862041786868ef9f2ad23336df49386eb98fe8259951830bdf7c3dbfd,5c70852d7826350001565ce4,"[192, 44, 251, 45, 1, 205, 243, 144, 177, 166, 66, 191, 122, 155, 255, 84, 201, 83, 119, 247, 98, 211, 78, 28, 36, 11, 103, 7, 181, 221, 141, 112]",5ef0634f4ba8c51f665b2209,5c70852d7826350001565ce4,5ef07ea42d63da59e8d52c0b,True,8.0,1.0,683.8747326555749,j,"[0, -0.33333333333333304]","[[0.16666666666666602, 0.33333333333333304], [-0.33333333333333304, -0.33333333333333304], [0.16666666666666602, 0], [0.33333333333333304, -0.16666666666666602], [0.16666666666666602, -0.33333333333333304], [0.33333333333333304, 0.16666666666666602], [-0.16666666666666602, -0.33333333333333304], [0, 0.16666666666666602]]",309.48026734404266,j,O_in_Q_vs,2.0,1.0,,,,,,,,,
,html-keyboard-response,46,82133,0.0-2.0-2.0-1.13,f078aa2862041786868ef9f2ad23336df49386eb98fe8259951830bdf7c3dbfd,5c70852d7826350001565ce4,"[192, 44, 251, 45, 1, 205, 243, 144, 177, 166, 66, 191, 122, 155, 255, 84, 201, 83, 119, 247, 98, 211, 78, 28, 36, 11, 103, 7, 181, 221, 141, 112]",5ef0634f4ba8c51f665b2209,5c70852d7826350001565ce4,5ef07ea42d63da59e8d52c0b,True,,,,,,,,,,,,,"<div style=""width:150px;height:56px;font-size:30px;text-align:center;"">correct!</div>",,,,,,,
,p5vs_yn,47,83656,0.0-2.0-2.0-0.14,f078aa2862041786868ef9f2ad23336df49386eb98fe8259951830bdf7c3dbfd,5c70852d7826350001565ce4,"[192, 44, 251, 45, 1, 205, 243, 144, 177, 166, 66, 191, 122, 155, 255, 84, 201, 83, 119, 247, 98, 211, 78, 28, 36, 11, 103, 7, 181, 221, 141, 112]",5ef0634f4ba8c51f665b2209,5c70852d7826350001565ce4,5ef07ea42d63da59e8d52c0b,True,4.0,1.0,599.610697467142,j,"[0, 0]","[[0.33333333333333304, -0.16666666666666602], [0.33333333333333304, 0], [0.33333333333333304, -0.33333333333333304], [0.16666666666666602, -0.16666666666666602]]",420.7093025324866,j,O_in_Q_vs,2.0,1.0,,,,,,,,,
,html-keyboard-response,48,84669,0.0-2.0-2.0-1.14,f078aa2862041786868ef9f2ad23336df49386eb98fe8259951830bdf7c3dbfd,5c70852d7826350001565ce4,"[192, 44, 251, 45, 1, 205, 243, 144, 177, 166, 66, 191, 122, 155, 255, 84, 201, 83, 119, 247, 98, 211, 78, 28, 36, 11, 103, 7, 181, 221, 141, 112]",5ef0634f4ba8c51f665b2209,5c70852d7826350001565ce4,5ef07ea42d63da59e8d52c0b,True,,,,,,,,,,,,,"<div style=""width:150px;height:56px;font-size:30px;text-align:center;"">correct!</div>",,,,,,,
,p5vs_yn,49,86250,0.0-2.0-2.0-0.15,f078aa2862041786868ef9f2ad23336df49386eb98fe8259951830bdf7c3dbfd,5c70852d7826350001565ce4,"[192, 44, 251, 45, 1, 205, 243, 144, 177, 166, 66, 191, 122, 155, 255, 84, 201, 83, 119, 247, 98, 211, 78, 28, 36, 11, 103, 7, 181, 221, 141, 112]",5ef0634f4ba8c51f665b2209,5c70852d7826350001565ce4,5ef07ea42d63da59e8d52c0b,True,1.0,0.0,615.1930961914331,f,"[-0.099999999999999, -0.099999999999999]","[[0.099999999999999, 0.30000000000000004]]",461.92690380848944,f,O_in_Q_vs,2.0,1.0,,,,,,,,,
,html-keyboard-response,50,87253,0.0-2.0-2.0-1.15,f078aa2862041786868ef9f2ad23336df49386eb98fe8259951830bdf7c3dbfd,5c70852d7826350001565ce4,"[192, 44, 251, 45, 1, 205, 243, 144, 177, 166, 66, 191, 122, 155, 255, 84, 201, 83, 119, 247, 98, 211, 78, 28, 36, 11, 103, 7, 181, 221, 141, 112]",5ef0634f4ba8c51f665b2209,5c70852d7826350001565ce4,5ef07ea42d63da59e8d52c0b,True,,,,,,,,,,,,,"<div style=""width:150px;height:56px;font-size:30px;text-align:center;"">correct!</div>",,,,,,,
,p5Text,51,91160,0.0-2.0-3.0,f078aa2862041786868ef9f2ad23336df49386eb98fe8259951830bdf7c3dbfd,5c70852d7826350001565ce4,"[192, 44, 251, 45, 1, 205, 243, 144, 177, 166, 66, 191, 122, 155, 255, 84, 201, 83, 119, 247, 98, 211, 78, 28, 36, 11, 103, 7, 181, 221, 141, 112]",5ef0634f4ba8c51f665b2209,5c70852d7826350001565ce4,5ef07ea42d63da59e8d52c0b,True,,,,,,,,,,,,,,,,,,,,
,p5Text,52,92617,0.0-2.0-4.0,f078aa2862041786868ef9f2ad23336df49386eb98fe8259951830bdf7c3dbfd,5c70852d7826350001565ce4,"[192, 44, 251, 45, 1, 205, 243, 144, 177, 166, 66, 191, 122, 155, 255, 84, 201, 83, 119, 247, 98, 211, 78, 28, 36, 11, 103, 7, 181, 221, 141, 112]",5ef0634f4ba8c51f665b2209,5c70852d7826350001565ce4,5ef07ea42d63da59e8d52c0b,True,,,,,,,,,,,,,,,,,,,,
,p5vs_yn,53,94171,0.0-2.0-5.0-0.0,f078aa2862041786868ef9f2ad23336df49386eb98fe8259951830bdf7c3dbfd,5c70852d7826350001565ce4,"[192, 44, 251, 45, 1, 205, 243, 144, 177, 166, 66, 191, 122, 155, 255, 84, 201, 83, 119, 247, 98, 211, 78, 28, 36, 11, 103, 7, 181, 221, 141, 112]",5ef0634f4ba8c51f665b2209,5c70852d7826350001565ce4,5ef07ea42d63da59e8d52c0b,True,2.0,0.0,734.5843223138363,f,"[0.30000000000000004, -0.099999999999999]","[[0.30000000000000004, -0.30000000000000004], [-0.099999999999999, -0.30000000000000004]]",315.45567768625915,f,O_in_Q_vs,2.0,1.0,,,,,,,,,
,html-keyboard-response,54,95174,0.0-2.0-5.0-1.0,f078aa2862041786868ef9f2ad23336df49386eb98fe8259951830bdf7c3dbfd,5c70852d7826350001565ce4,"[192, 44, 251, 45, 1, 205, 243, 144, 177, 166, 66, 191, 122, 155, 255, 84, 201, 83, 119, 247, 98, 211, 78, 28, 36, 11, 103, 7, 181, 221, 141, 112]",5ef0634f4ba8c51f665b2209,5c70852d7826350001565ce4,5ef07ea42d63da59e8d52c0b,True,,,,,,,,,,,,,"<div style=""width:150px;height:56px;font-size:30px;text-align:center;"">correct!</div>",,,,,,,
,p5vs_yn,55,96689,0.0-2.0-5.0-0.1,f078aa2862041786868ef9f2ad23336df49386eb98fe8259951830bdf7c3dbfd,5c70852d7826350001565ce4,"[192, 44, 251, 45, 1, 205, 243, 144, 177, 166, 66, 191, 122, 155, 255, 84, 201, 83, 119, 247, 98, 211, 78, 28, 36, 11, 103, 7, 181, 221, 141, 112]",5ef0634f4ba8c51f665b2209,5c70852d7826350001565ce4,5ef07ea42d63da59e8d52c0b,True,2.0,1.0,674.0803757966205,j,"[-0.30000000000000004, -0.099999999999999]","[[-0.099999999999999, 0.099999999999999], [0.30000000000000004, -0.30000000000000004]]",338.244624203071,j,O_in_Q_vs,2.0,1.0,,,,,,,,,
,html-keyboard-response,56,97691,0.0-2.0-5.0-1.1,f078aa2862041786868ef9f2ad23336df49386eb98fe8259951830bdf7c3dbfd,5c70852d7826350001565ce4,"[192, 44, 251, 45, 1, 205, 243, 144, 177, 166, 66, 191, 122, 155, 255, 84, 201, 83, 119, 247, 98, 211, 78, 28, 36, 11, 103, 7, 181, 221, 141, 112]",5ef0634f4ba8c51f665b2209,5c70852d7826350001565ce4,5ef07ea42d63da59e8d52c0b,True,,,,,,,,,,,,,"<div style=""width:150px;height:56px;font-size:30px;text-align:center;"">correct!</div>",,,,,,,
,p5vs_yn,57,99255,0.0-2.0-5.0-0.2,f078aa2862041786868ef9f2ad23336df49386eb98fe8259951830bdf7c3dbfd,5c70852d7826350001565ce4,"[192, 44, 251, 45, 1, 205, 243, 144, 177, 166, 66, 191, 122, 155, 255, 84, 201, 83, 119, 247, 98, 211, 78, 28, 36, 11, 103, 7, 181, 221, 141, 112]",5ef0634f4ba8c51f665b2209,5c70852d7826350001565ce4,5ef07ea42d63da59e8d52c0b,True,1.0,0.0,701.8472929421405,f,"[0.099999999999999, 0.099999999999999]","[[0.30000000000000004, 0.30000000000000004]]",359.55270705744624,f,O_in_Q_vs,2.0,1.0,,,,,,,,,
,html-keyboard-response,58,100256,0.0-2.0-5.0-1.2,f078aa2862041786868ef9f2ad23336df49386eb98fe8259951830bdf7c3dbfd,5c70852d7826350001565ce4,"[192, 44, 251, 45, 1, 205, 243, 144, 177, 166, 66, 191, 122, 155, 255, 84, 201, 83, 119, 247, 98, 211, 78, 28, 36, 11, 103, 7, 181, 221, 141, 112]",5ef0634f4ba8c51f665b2209,5c70852d7826350001565ce4,5ef07ea42d63da59e8d52c0b,True,,,,,,,,,,,,,"<div style=""width:150px;height:56px;font-size:30px;text-align:center;"">correct!</div>",,,,,,,
,p5vs_yn,59,101894,0.0-2.0-5.0-0.3,f078aa2862041786868ef9f2ad23336df49386eb98fe8259951830bdf7c3dbfd,5c70852d7826350001565ce4,"[192, 44, 251, 45, 1, 205, 243, 144, 177, 166, 66, 191, 122, 155, 255, 84, 201, 83, 119, 247, 98, 211, 78, 28, 36, 11, 103, 7, 181, 221, 141, 112]",5ef0634f4ba8c51f665b2209,5c70852d7826350001565ce4,5ef07ea42d63da59e8d52c0b,True,8.0,1.0,759.9073454448371,j,"[0.33333333333333304, 0.33333333333333304]","[[-0.16666666666666602, -0.16666666666666602], [-0.16666666666666602, 0.16666666666666602], [-0.16666666666666602, 0.33333333333333304], [-0.33333333333333304, 0.16666666666666602], [0.16666666666666602, 0.16666666666666602], [0.16666666666666602, -0.33333333333333304], [0.16666666666666602, 0], [0, -0.16666666666666602]]",375.4376545548439,j,O_in_Q_vs,2.0,1.0,,,,,,,,,
,html-keyboard-response,60,102899,0.0-2.0-5.0-1.3,f078aa2862041786868ef9f2ad23336df49386eb98fe8259951830bdf7c3dbfd,5c70852d7826350001565ce4,"[192, 44, 251, 45, 1, 205, 243, 144, 177, 166, 66, 191, 122, 155, 255, 84, 201, 83, 119, 247, 98, 211, 78, 28, 36, 11, 103, 7, 181, 221, 141, 112]",5ef0634f4ba8c51f665b2209,5c70852d7826350001565ce4,5ef07ea42d63da59e8d52c0b,True,,,,,,,,,,,,,"<div style=""width:150px;height:56px;font-size:30px;text-align:center;"">correct!</div>",,,,,,,
,p5vs_yn,61,104153,0.0-2.0-5.0-0.4,f078aa2862041786868ef9f2ad23336df49386eb98fe8259951830bdf7c3dbfd,5c70852d7826350001565ce4,"[192, 44, 251, 45, 1, 205, 243, 144, 177, 166, 66, 191, 122, 155, 255, 84, 201, 83, 119, 247, 98, 211, 78, 28, 36, 11, 103, 7, 181, 221, 141, 112]",5ef0634f4ba8c51f665b2209,5c70852d7826350001565ce4,5ef07ea42d63da59e8d52c0b,True,1.0,1.0,628.6396314681042,j,"[0.099999999999999, 0.30000000000000004]","[[0.30000000000000004, 0.30000000000000004]]",123.68036853149533,j,O_in_Q_vs,2.0,1.0,,,,,,,,,
,html-keyboard-response,62,105156,0.0-2.0-5.0-1.4,f078aa2862041786868ef9f2ad23336df49386eb98fe8259951830bdf7c3dbfd,5c70852d7826350001565ce4,"[192, 44, 251, 45, 1, 205, 243, 144, 177, 166, 66, 191, 122, 155, 255, 84, 201, 83, 119, 247, 98, 211, 78, 28, 36, 11, 103, 7, 181, 221, 141, 112]",5ef0634f4ba8c51f665b2209,5c70852d7826350001565ce4,5ef07ea42d63da59e8d52c0b,True,,,,,,,,,,,,,"<div style=""width:150px;height:56px;font-size:30px;text-align:center;"">correct!</div>",,,,,,,
,p5vs_yn,63,106535,0.0-2.0-5.0-0.5,f078aa2862041786868ef9f2ad23336df49386eb98fe8259951830bdf7c3dbfd,5c70852d7826350001565ce4,"[192, 44, 251, 45, 1, 205, 243, 144, 177, 166, 66, 191, 122, 155, 255, 84, 201, 83, 119, 247, 98, 211, 78, 28, 36, 11, 103, 7, 181, 221, 141, 112]",5ef0634f4ba8c51f665b2209,5c70852d7826350001565ce4,5ef07ea42d63da59e8d52c0b,True,8.0,0.0,597.2860830342979,j,"[0, 0.16666666666666602]","[[0.16666666666666602, 0.33333333333333304], [0.16666666666666602, -0.16666666666666602], [-0.33333333333333304, 0], [0.33333333333333304, 0.16666666666666602], [-0.16666666666666602, 0], [-0.16666666666666602, 0.33333333333333304], [0.33333333333333304, -0.16666666666666602], [-0.33333333333333304, 0.33333333333333304]]",279.54891696572304,f,O_in_Q_vs,2.0,0.0,,,,,,,,,
,html-keyboard-response,64,108036,0.0-2.0-5.0-1.5,f078aa2862041786868ef9f2ad23336df49386eb98fe8259951830bdf7c3dbfd,5c70852d7826350001565ce4,"[192, 44, 251, 45, 1, 205, 243, 144, 177, 166, 66, 191, 122, 155, 255, 84, 201, 83, 119, 247, 98, 211, 78, 28, 36, 11, 103, 7, 181, 221, 141, 112]",5ef0634f4ba8c51f665b2209,5c70852d7826350001565ce4,5ef07ea42d63da59e8d52c0b,True,,,,,,,,,,,,,"<div style=""width:150px;height:56px;border:0px;font-size:30px;text-align:center"">wrong.</div>",,,,,,,
,p5vs_yn,65,109449,0.0-2.0-5.0-0.6,f078aa2862041786868ef9f2ad23336df49386eb98fe8259951830bdf7c3dbfd,5c70852d7826350001565ce4,"[192, 44, 251, 45, 1, 205, 243, 144, 177, 166, 66, 191, 122, 155, 255, 84, 201, 83, 119, 247, 98, 211, 78, 28, 36, 11, 103, 7, 181, 221, 141, 112]",5ef0634f4ba8c51f665b2209,5c70852d7826350001565ce4,5ef07ea42d63da59e8d52c0b,True,4.0,0.0,706.1995594867767,f,"[-0.16666666666666602, 0]","[[0.16666666666666602, -0.16666666666666602], [-0.33333333333333304, 0], [0.16666666666666602, 0.16666666666666602], [-0.33333333333333304, 0.33333333333333304]]",203.93544051330537,f,O_in_Q_vs,2.0,1.0,,,,,,,,,
,html-keyboard-response,66,110452,0.0-2.0-5.0-1.6,f078aa2862041786868ef9f2ad23336df49386eb98fe8259951830bdf7c3dbfd,5c70852d7826350001565ce4,"[192, 44, 251, 45, 1, 205, 243, 144, 177, 166, 66, 191, 122, 155, 255, 84, 201, 83, 119, 247, 98, 211, 78, 28, 36, 11, 103, 7, 181, 221, 141, 112]",5ef0634f4ba8c51f665b2209,5c70852d7826350001565ce4,5ef07ea42d63da59e8d52c0b,True,,,,,,,,,,,,,"<div style=""width:150px;height:56px;font-size:30px;text-align:center;"">correct!</div>",,,,,,,
,p5vs_yn,67,112052,0.0-2.0-5.0-0.7,f078aa2862041786868ef9f2ad23336df49386eb98fe8259951830bdf7c3dbfd,5c70852d7826350001565ce4,"[192, 44, 251, 45, 1, 205, 243, 144, 177, 166, 66, 191, 122, 155, 255, 84, 201, 83, 119, 247, 98, 211, 78, 28, 36, 11, 103, 7, 181, 221, 141, 112]",5ef0634f4ba8c51f665b2209,5c70852d7826350001565ce4,5ef07ea42d63da59e8d52c0b,True,4.0,1.0,948.6356746619858,j,"[-0.16666666666666602, 0.16666666666666602]","[[0, 0.33333333333333304], [-0.16666666666666602, -0.33333333333333304], [-0.33333333333333304, -0.16666666666666602], [-0.16666666666666602, -0.16666666666666602]]",148.27932533808053,j,O_in_Q_vs,2.0,1.0,,,,,,,,,
,html-keyboard-response,68,113058,0.0-2.0-5.0-1.7,f078aa2862041786868ef9f2ad23336df49386eb98fe8259951830bdf7c3dbfd,5c70852d7826350001565ce4,"[192, 44, 251, 45, 1, 205, 243, 144, 177, 166, 66, 191, 122, 155, 255, 84, 201, 83, 119, 247, 98, 211, 78, 28, 36, 11, 103, 7, 181, 221, 141, 112]",5ef0634f4ba8c51f665b2209,5c70852d7826350001565ce4,5ef07ea42d63da59e8d52c0b,True,,,,,,,,,,,,,"<div style=""width:150px;height:56px;font-size:30px;text-align:center;"">correct!</div>",,,,,,,
,p5vs_yn,69,114168,0.0-2.0-5.0-0.8,f078aa2862041786868ef9f2ad23336df49386eb98fe8259951830bdf7c3dbfd,5c70852d7826350001565ce4,"[192, 44, 251, 45, 1, 205, 243, 144, 177, 166, 66, 191, 122, 155, 255, 84, 201, 83, 119, 247, 98, 211, 78, 28, 36, 11, 103, 7, 181, 221, 141, 112]",5ef0634f4ba8c51f665b2209,5c70852d7826350001565ce4,5ef07ea42d63da59e8d52c0b,True,2.0,1.0,552.0377071079565,j,"[-0.099999999999999, 0.30000000000000004]","[[0.30000000000000004, -0.099999999999999], [0.099999999999999, -0.099999999999999]]",54.19729289133102,j,O_in_Q_vs,2.0,1.0,,,,,,,,,
,html-keyboard-response,70,115171,0.0-2.0-5.0-1.8,f078aa2862041786868ef9f2ad23336df49386eb98fe8259951830bdf7c3dbfd,5c70852d7826350001565ce4,"[192, 44, 251, 45, 1, 205, 243, 144, 177, 166, 66, 191, 122, 155, 255, 84, 201, 83, 119, 247, 98, 211, 78, 28, 36, 11, 103, 7, 181, 221, 141, 112]",5ef0634f4ba8c51f665b2209,5c70852d7826350001565ce4,5ef07ea42d63da59e8d52c0b,True,,,,,,,,,,,,,"<div style=""width:150px;height:56px;font-size:30px;text-align:center;"">correct!</div>",,,,,,,
,p5vs_yn,71,116759,0.0-2.0-5.0-0.9,f078aa2862041786868ef9f2ad23336df49386eb98fe8259951830bdf7c3dbfd,5c70852d7826350001565ce4,"[192, 44, 251, 45, 1, 205, 243, 144, 177, 166, 66, 191, 122, 155, 255, 84, 201, 83, 119, 247, 98, 211, 78, 28, 36, 11, 103, 7, 181, 221, 141, 112]",5ef0634f4ba8c51f665b2209,5c70852d7826350001565ce4,5ef07ea42d63da59e8d52c0b,True,1.0,0.0,699.7275830599247,j,"[-0.30000000000000004, -0.30000000000000004]","[[-0.099999999999999, -0.30000000000000004]]",384.5174169400707,f,O_in_Q_vs,2.0,0.0,,,,,,,,,
,html-keyboard-response,72,118261,0.0-2.0-5.0-1.9,f078aa2862041786868ef9f2ad23336df49386eb98fe8259951830bdf7c3dbfd,5c70852d7826350001565ce4,"[192, 44, 251, 45, 1, 205, 243, 144, 177, 166, 66, 191, 122, 155, 255, 84, 201, 83, 119, 247, 98, 211, 78, 28, 36, 11, 103, 7, 181, 221, 141, 112]",5ef0634f4ba8c51f665b2209,5c70852d7826350001565ce4,5ef07ea42d63da59e8d52c0b,True,,,,,,,,,,,,,"<div style=""width:150px;height:56px;border:0px;font-size:30px;text-align:center"">wrong.</div>",,,,,,,
,p5vs_yn,73,119853,0.0-2.0-5.0-0.10,f078aa2862041786868ef9f2ad23336df49386eb98fe8259951830bdf7c3dbfd,5c70852d7826350001565ce4,"[192, 44, 251, 45, 1, 205, 243, 144, 177, 166, 66, 191, 122, 155, 255, 84, 201, 83, 119, 247, 98, 211, 78, 28, 36, 11, 103, 7, 181, 221, 141, 112]",5ef0634f4ba8c51f665b2209,5c70852d7826350001565ce4,5ef07ea42d63da59e8d52c0b,True,4.0,0.0,592.6685161275527,j,"[-0.16666666666666602, 0]","[[0.16666666666666602, -0.16666666666666602], [-0.33333333333333304, 0], [0, -0.16666666666666602], [-0.16666666666666602, -0.33333333333333304]]",497.05648387316614,f,O_in_Q_vs,2.0,0.0,,,,,,,,,
,html-keyboard-response,74,121364,0.0-2.0-5.0-1.10,f078aa2862041786868ef9f2ad23336df49386eb98fe8259951830bdf7c3dbfd,5c70852d7826350001565ce4,"[192, 44, 251, 45, 1, 205, 243, 144, 177, 166, 66, 191, 122, 155, 255, 84, 201, 83, 119, 247, 98, 211, 78, 28, 36, 11, 103, 7, 181, 221, 141, 112]",5ef0634f4ba8c51f665b2209,5c70852d7826350001565ce4,5ef07ea42d63da59e8d52c0b,True,,,,,,,,,,,,,"<div style=""width:150px;height:56px;border:0px;font-size:30px;text-align:center"">wrong.</div>",,,,,,,
,p5vs_yn,75,122836,0.0-2.0-5.0-0.11,f078aa2862041786868ef9f2ad23336df49386eb98fe8259951830bdf7c3dbfd,5c70852d7826350001565ce4,"[192, 44, 251, 45, 1, 205, 243, 144, 177, 166, 66, 191, 122, 155, 255, 84, 201, 83, 119, 247, 98, 211, 78, 28, 36, 11, 103, 7, 181, 221, 141, 112]",5ef0634f4ba8c51f665b2209,5c70852d7826350001565ce4,5ef07ea42d63da59e8d52c0b,True,1.0,1.0,690.9545953722118,j,"[0.099999999999999, -0.30000000000000004]","[[0.099999999999999, 0.099999999999999]]",278.8154046284035,j,O_in_Q_vs,2.0,1.0,,,,,,,,,
,html-keyboard-response,76,123838,0.0-2.0-5.0-1.11,f078aa2862041786868ef9f2ad23336df49386eb98fe8259951830bdf7c3dbfd,5c70852d7826350001565ce4,"[192, 44, 251, 45, 1, 205, 243, 144, 177, 166, 66, 191, 122, 155, 255, 84, 201, 83, 119, 247, 98, 211, 78, 28, 36, 11, 103, 7, 181, 221, 141, 112]",5ef0634f4ba8c51f665b2209,5c70852d7826350001565ce4,5ef07ea42d63da59e8d52c0b,True,,,,,,,,,,,,,"<div style=""width:150px;height:56px;font-size:30px;text-align:center;"">correct!</div>",,,,,,,
,p5vs_yn,77,125068,0.0-2.0-5.0-0.12,f078aa2862041786868ef9f2ad23336df49386eb98fe8259951830bdf7c3dbfd,5c70852d7826350001565ce4,"[192, 44, 251, 45, 1, 205, 243, 144, 177, 166, 66, 191, 122, 155, 255, 84, 201, 83, 119, 247, 98, 211, 78, 28, 36, 11, 103, 7, 181, 221, 141, 112]",5ef0634f4ba8c51f665b2209,5c70852d7826350001565ce4,5ef07ea42d63da59e8d52c0b,True,8.0,0.0,714.1720076115162,f,"[0.33333333333333304, 0.33333333333333304]","[[0.33333333333333304, 0], [-0.33333333333333304, -0.16666666666666602], [-0.16666666666666602, -0.16666666666666602], [0, -0.16666666666666602], [0.33333333333333304, -0.16666666666666602], [0.16666666666666602, 0], [-0.16666666666666602, -0.33333333333333304], [0.16666666666666602, 0.33333333333333304]]",12.377992388792336,f,O_in_Q_vs,2.0,1.0,,,,,,,,,
,html-keyboard-response,78,126070,0.0-2.0-5.0-1.12,f078aa2862041786868ef9f2ad23336df49386eb98fe8259951830bdf7c3dbfd,5c70852d7826350001565ce4,"[192, 44, 251, 45, 1, 205, 243, 144, 177, 166, 66, 191, 122, 155, 255, 84, 201, 83, 119, 247, 98, 211, 78, 28, 36, 11, 103, 7, 181, 221, 141, 112]",5ef0634f4ba8c51f665b2209,5c70852d7826350001565ce4,5ef07ea42d63da59e8d52c0b,True,,,,,,,,,,,,,"<div style=""width:150px;height:56px;font-size:30px;text-align:center;"">correct!</div>",,,,,,,
,p5vs_yn,79,127404,0.0-2.0-5.0-0.13,f078aa2862041786868ef9f2ad23336df49386eb98fe8259951830bdf7c3dbfd,5c70852d7826350001565ce4,"[192, 44, 251, 45, 1, 205, 243, 144, 177, 166, 66, 191, 122, 155, 255, 84, 201, 83, 119, 247, 98, 211, 78, 28, 36, 11, 103, 7, 181, 221, 141, 112]",5ef0634f4ba8c51f665b2209,5c70852d7826350001565ce4,5ef07ea42d63da59e8d52c0b,True,8.0,1.0,778.8042286001582,j,"[0.16666666666666602, -0.33333333333333304]","[[0, 0.16666666666666602], [0.33333333333333304, 0.33333333333333304], [-0.33333333333333304, 0.33333333333333304], [0.16666666666666602, -0.16666666666666602], [0.33333333333333304, 0], [0.33333333333333304, 0.16666666666666602], [0, 0.33333333333333304], [-0.33333333333333304, -0.16666666666666602]]",52.75077139958739,j,O_in_Q_vs,2.0,1.0,,,,,,,,,
,html-keyboard-response,80,128418,0.0-2.0-5.0-1.13,f078aa2862041786868ef9f2ad23336df49386eb98fe8259951830bdf7c3dbfd,5c70852d7826350001565ce4,"[192, 44, 251, 45, 1, 205, 243, 144, 177, 166, 66, 191, 122, 155, 255, 84, 201, 83, 119, 247, 98, 211, 78, 28, 36, 11, 103, 7, 181, 221, 141, 112]",5ef0634f4ba8c51f665b2209,5c70852d7826350001565ce4,5ef07ea42d63da59e8d52c0b,True,,,,,,,,,,,,,"<div style=""width:150px;height:56px;font-size:30px;text-align:center;"">correct!</div>",,,,,,,
,p5vs_yn,81,129964,0.0-2.0-5.0-0.14,f078aa2862041786868ef9f2ad23336df49386eb98fe8259951830bdf7c3dbfd,5c70852d7826350001565ce4,"[192, 44, 251, 45, 1, 205, 243, 144, 177, 166, 66, 191, 122, 155, 255, 84, 201, 83, 119, 247, 98, 211, 78, 28, 36, 11, 103, 7, 181, 221, 141, 112]",5ef0634f4ba8c51f665b2209,5c70852d7826350001565ce4,5ef07ea42d63da59e8d52c0b,True,4.0,1.0,668.414730575023,j,"[-0.16666666666666602, -0.33333333333333304]","[[0, 0.33333333333333304], [-0.16666666666666602, 0.33333333333333304], [-0.16666666666666602, 0], [0.16666666666666602, -0.16666666666666602]]",375.7852694252506,j,O_in_Q_vs,2.0,1.0,,,,,,,,,
,html-keyboard-response,82,130966,0.0-2.0-5.0-1.14,f078aa2862041786868ef9f2ad23336df49386eb98fe8259951830bdf7c3dbfd,5c70852d7826350001565ce4,"[192, 44, 251, 45, 1, 205, 243, 144, 177, 166, 66, 191, 122, 155, 255, 84, 201, 83, 119, 247, 98, 211, 78, 28, 36, 11, 103, 7, 181, 221, 141, 112]",5ef0634f4ba8c51f665b2209,5c70852d7826350001565ce4,5ef07ea42d63da59e8d52c0b,True,,,,,,,,,,,,,"<div style=""width:150px;height:56px;font-size:30px;text-align:center;"">correct!</div>",,,,,,,
,p5vs_yn,83,132544,0.0-2.0-5.0-0.15,f078aa2862041786868ef9f2ad23336df49386eb98fe8259951830bdf7c3dbfd,5c70852d7826350001565ce4,"[192, 44, 251, 45, 1, 205, 243, 144, 177, 166, 66, 191, 122, 155, 255, 84, 201, 83, 119, 247, 98, 211, 78, 28, 36, 11, 103, 7, 181, 221, 141, 112]",5ef0634f4ba8c51f665b2209,5c70852d7826350001565ce4,5ef07ea42d63da59e8d52c0b,True,2.0,0.0,584.2394748587976,f,"[0.30000000000000004, -0.099999999999999]","[[-0.099999999999999, -0.099999999999999], [-0.30000000000000004, 0.30000000000000004]]",491.31552514154464,f,O_in_Q_vs,2.0,1.0,,,,,,,,,
,html-keyboard-response,84,133547,0.0-2.0-5.0-1.15,f078aa2862041786868ef9f2ad23336df49386eb98fe8259951830bdf7c3dbfd,5c70852d7826350001565ce4,"[192, 44, 251, 45, 1, 205, 243, 144, 177, 166, 66, 191, 122, 155, 255, 84, 201, 83, 119, 247, 98, 211, 78, 28, 36, 11, 103, 7, 181, 221, 141, 112]",5ef0634f4ba8c51f665b2209,5c70852d7826350001565ce4,5ef07ea42d63da59e8d52c0b,True,,,,,,,,,,,,,"<div style=""width:150px;height:56px;font-size:30px;text-align:center;"">correct!</div>",,,,,,,
,p5Text,85,134917,0.0-2.0-6.0,f078aa2862041786868ef9f2ad23336df49386eb98fe8259951830bdf7c3dbfd,5c70852d7826350001565ce4,"[192, 44, 251, 45, 1, 205, 243, 144, 177, 166, 66, 191, 122, 155, 255, 84, 201, 83, 119, 247, 98, 211, 78, 28, 36, 11, 103, 7, 181, 221, 141, 112]",5ef0634f4ba8c51f665b2209,5c70852d7826350001565ce4,5ef07ea42d63da59e8d52c0b,True,,,,,,,,,,,,,,,,,,,,
,call-function,86,134917,0.0-2.0-7.0,f078aa2862041786868ef9f2ad23336df49386eb98fe8259951830bdf7c3dbfd,5c70852d7826350001565ce4,"[192, 44, 251, 45, 1, 205, 243, 144, 177, 166, 66, 191, 122, 155, 255, 84, 201, 83, 119, 247, 98, 211, 78, 28, 36, 11, 103, 7, 181, 221, 141, 112]",5ef0634f4ba8c51f665b2209,5c70852d7826350001565ce4,5ef07ea42d63da59e8d52c0b,True,,,,,,,,,,,,,,,,,,,,
,p5Text,87,140626,0.0-3.0-0.0,f078aa2862041786868ef9f2ad23336df49386eb98fe8259951830bdf7c3dbfd,5c70852d7826350001565ce4,"[192, 44, 251, 45, 1, 205, 243, 144, 177, 166, 66, 191, 122, 155, 255, 84, 201, 83, 119, 247, 98, 211, 78, 28, 36, 11, 103, 7, 181, 221, 141, 112]",5ef0634f4ba8c51f665b2209,5c70852d7826350001565ce4,5ef07ea42d63da59e8d52c0b,True,,,,,,,,,,,,,,,,,,,,
,p5vs_yn,88,142580,0.0-3.0-1.0-0.0-0.0,f078aa2862041786868ef9f2ad23336df49386eb98fe8259951830bdf7c3dbfd,5c70852d7826350001565ce4,"[192, 44, 251, 45, 1, 205, 243, 144, 177, 166, 66, 191, 122, 155, 255, 84, 201, 83, 119, 247, 98, 211, 78, 28, 36, 11, 103, 7, 181, 221, 141, 112]",5ef0634f4ba8c51f665b2209,5c70852d7826350001565ce4,5ef07ea42d63da59e8d52c0b,True,3.0,0.0,1367.3092800017912,f,"[-0.30000000000000004, 0.099999999999999]","[[-0.099999999999999, 0.099999999999999], [0.30000000000000004, 0.099999999999999], [0.099999999999999, 0.30000000000000004]]",82.57071999832988,f,practice_Q_in_O,,1.0,,,,,,,,,
,html-keyboard-response,89,143582,0.0-3.0-1.0-0.0-1.0,f078aa2862041786868ef9f2ad23336df49386eb98fe8259951830bdf7c3dbfd,5c70852d7826350001565ce4,"[192, 44, 251, 45, 1, 205, 243, 144, 177, 166, 66, 191, 122, 155, 255, 84, 201, 83, 119, 247, 98, 211, 78, 28, 36, 11, 103, 7, 181, 221, 141, 112]",5ef0634f4ba8c51f665b2209,5c70852d7826350001565ce4,5ef07ea42d63da59e8d52c0b,True,,,,,,,,,,,,,"<div style=""width:150px;height:56px;font-size:30px;text-align:center;"">correct!</div>",,,,,,,
,p5vs_yn,90,145246,0.0-3.0-1.0-0.0-0.1,f078aa2862041786868ef9f2ad23336df49386eb98fe8259951830bdf7c3dbfd,5c70852d7826350001565ce4,"[192, 44, 251, 45, 1, 205, 243, 144, 177, 166, 66, 191, 122, 155, 255, 84, 201, 83, 119, 247, 98, 211, 78, 28, 36, 11, 103, 7, 181, 221, 141, 112]",5ef0634f4ba8c51f665b2209,5c70852d7826350001565ce4,5ef07ea42d63da59e8d52c0b,True,3.0,1.0,859.9911036335398,j,"[0.30000000000000004, -0.30000000000000004]","[[0.30000000000000004, 0.099999999999999], [0.099999999999999, -0.099999999999999], [-0.30000000000000004, 0.099999999999999]]",301.4888963662088,j,practice_Q_in_O,,1.0,,,,,,,,,
,html-keyboard-response,91,146249,0.0-3.0-1.0-0.0-1.1,f078aa2862041786868ef9f2ad23336df49386eb98fe8259951830bdf7c3dbfd,5c70852d7826350001565ce4,"[192, 44, 251, 45, 1, 205, 243, 144, 177, 166, 66, 191, 122, 155, 255, 84, 201, 83, 119, 247, 98, 211, 78, 28, 36, 11, 103, 7, 181, 221, 141, 112]",5ef0634f4ba8c51f665b2209,5c70852d7826350001565ce4,5ef07ea42d63da59e8d52c0b,True,,,,,,,,,,,,,"<div style=""width:150px;height:56px;font-size:30px;text-align:center;"">correct!</div>",,,,,,,
,p5vs_yn,92,147846,0.0-3.0-1.0-0.0-0.2,f078aa2862041786868ef9f2ad23336df49386eb98fe8259951830bdf7c3dbfd,5c70852d7826350001565ce4,"[192, 44, 251, 45, 1, 205, 243, 144, 177, 166, 66, 191, 122, 155, 255, 84, 201, 83, 119, 247, 98, 211, 78, 28, 36, 11, 103, 7, 181, 221, 141, 112]",5ef0634f4ba8c51f665b2209,5c70852d7826350001565ce4,5ef07ea42d63da59e8d52c0b,True,3.0,1.0,682.2168382650416,j,"[-0.30000000000000004, 0.099999999999999]","[[0.099999999999999, 0.30000000000000004], [0.099999999999999, -0.099999999999999], [0.099999999999999, -0.30000000000000004]]",411.74316173419356,j,practice_Q_in_O,,1.0,,,,,,,,,
,html-keyboard-response,93,148857,0.0-3.0-1.0-0.0-1.2,f078aa2862041786868ef9f2ad23336df49386eb98fe8259951830bdf7c3dbfd,5c70852d7826350001565ce4,"[192, 44, 251, 45, 1, 205, 243, 144, 177, 166, 66, 191, 122, 155, 255, 84, 201, 83, 119, 247, 98, 211, 78, 28, 36, 11, 103, 7, 181, 221, 141, 112]",5ef0634f4ba8c51f665b2209,5c70852d7826350001565ce4,5ef07ea42d63da59e8d52c0b,True,,,,,,,,,,,,,"<div style=""width:150px;height:56px;font-size:30px;text-align:center;"">correct!</div>",,,,,,,
,p5vs_yn,94,150206,0.0-3.0-1.0-0.0-0.3,f078aa2862041786868ef9f2ad23336df49386eb98fe8259951830bdf7c3dbfd,5c70852d7826350001565ce4,"[192, 44, 251, 45, 1, 205, 243, 144, 177, 166, 66, 191, 122, 155, 255, 84, 201, 83, 119, 247, 98, 211, 78, 28, 36, 11, 103, 7, 181, 221, 141, 112]",5ef0634f4ba8c51f665b2209,5c70852d7826350001565ce4,5ef07ea42d63da59e8d52c0b,True,3.0,0.0,654.8427224906918,f,"[-0.30000000000000004, -0.099999999999999]","[[0.099999999999999, -0.30000000000000004], [0.30000000000000004, -0.30000000000000004], [-0.30000000000000004, -0.30000000000000004]]",191.7472775094211,f,practice_Q_in_O,,1.0,,,,,,,,,
,html-keyboard-response,95,151207,0.0-3.0-1.0-0.0-1.3,f078aa2862041786868ef9f2ad23336df49386eb98fe8259951830bdf7c3dbfd,5c70852d7826350001565ce4,"[192, 44, 251, 45, 1, 205, 243, 144, 177, 166, 66, 191, 122, 155, 255, 84, 201, 83, 119, 247, 98, 211, 78, 28, 36, 11, 103, 7, 181, 221, 141, 112]",5ef0634f4ba8c51f665b2209,5c70852d7826350001565ce4,5ef07ea42d63da59e8d52c0b,True,,,,,,,,,,,,,"<div style=""width:150px;height:56px;font-size:30px;text-align:center;"">correct!</div>",,,,,,,
,p5vs_yn,96,153187,0.0-3.0-2.0-0.0,f078aa2862041786868ef9f2ad23336df49386eb98fe8259951830bdf7c3dbfd,5c70852d7826350001565ce4,"[192, 44, 251, 45, 1, 205, 243, 144, 177, 166, 66, 191, 122, 155, 255, 84, 201, 83, 119, 247, 98, 211, 78, 28, 36, 11, 103, 7, 181, 221, 141, 112]",5ef0634f4ba8c51f665b2209,5c70852d7826350001565ce4,5ef07ea42d63da59e8d52c0b,True,1.0,1.0,1040.2671216670424,j,"[0.099999999999999, -0.30000000000000004]","[[-0.099999999999999, -0.099999999999999]]",436.68787833303213,j,Q_in_O_vs,,1.0,,,,,,,,,
,html-keyboard-response,97,154188,0.0-3.0-2.0-1.0,f078aa2862041786868ef9f2ad23336df49386eb98fe8259951830bdf7c3dbfd,5c70852d7826350001565ce4,"[192, 44, 251, 45, 1, 205, 243, 144, 177, 166, 66, 191, 122, 155, 255, 84, 201, 83, 119, 247, 98, 211, 78, 28, 36, 11, 103, 7, 181, 221, 141, 112]",5ef0634f4ba8c51f665b2209,5c70852d7826350001565ce4,5ef07ea42d63da59e8d52c0b,True,,,,,,,,,,,,,"<div style=""width:150px;height:56px;font-size:30px;text-align:center;"">correct!</div>",,,,,,,
,p5vs_yn,98,155652,0.0-3.0-2.0-0.1,f078aa2862041786868ef9f2ad23336df49386eb98fe8259951830bdf7c3dbfd,5c70852d7826350001565ce4,"[192, 44, 251, 45, 1, 205, 243, 144, 177, 166, 66, 191, 122, 155, 255, 84, 201, 83, 119, 247, 98, 211, 78, 28, 36, 11, 103, 7, 181, 221, 141, 112]",5ef0634f4ba8c51f665b2209,5c70852d7826350001565ce4,5ef07ea42d63da59e8d52c0b,True,2.0,1.0,519.646437561285,j,"[0.099999999999999, -0.099999999999999]","[[-0.099999999999999, -0.30000000000000004], [0.099999999999999, 0.30000000000000004]]",441.3885624380782,j,Q_in_O_vs,,1.0,,,,,,,,,
,html-keyboard-response,99,156663,0.0-3.0-2.0-1.1,f078aa2862041786868ef9f2ad23336df49386eb98fe8259951830bdf7c3dbfd,5c70852d7826350001565ce4,"[192, 44, 251, 45, 1, 205, 243, 144, 177, 166, 66, 191, 122, 155, 255, 84, 201, 83, 119, 247, 98, 211, 78, 28, 36, 11, 103, 7, 181, 221, 141, 112]",5ef0634f4ba8c51f665b2209,5c70852d7826350001565ce4,5ef07ea42d63da59e8d52c0b,True,,,,,,,,,,,,,"<div style=""width:150px;height:56px;font-size:30px;text-align:center;"">correct!</div>",,,,,,,
,p5vs_yn,100,158077,0.0-3.0-2.0-0.2,f078aa2862041786868ef9f2ad23336df49386eb98fe8259951830bdf7c3dbfd,5c70852d7826350001565ce4,"[192, 44, 251, 45, 1, 205, 243, 144, 177, 166, 66, 191, 122, 155, 255, 84, 201, 83, 119, 247, 98, 211, 78, 28, 36, 11, 103, 7, 181, 221, 141, 112]",5ef0634f4ba8c51f665b2209,5c70852d7826350001565ce4,5ef07ea42d63da59e8d52c0b,True,1.0,0.0,480.6473437065433,f,"[0.30000000000000004, 0.30000000000000004]","[[0.30000000000000004, 0.099999999999999]]",431.6376562928781,f,Q_in_O_vs,,1.0,,,,,,,,,
,html-keyboard-response,101,159080,0.0-3.0-2.0-1.2,f078aa2862041786868ef9f2ad23336df49386eb98fe8259951830bdf7c3dbfd,5c70852d7826350001565ce4,"[192, 44, 251, 45, 1, 205, 243, 144, 177, 166, 66, 191, 122, 155, 255, 84, 201, 83, 119, 247, 98, 211, 78, 28, 36, 11, 103, 7, 181, 221, 141, 112]",5ef0634f4ba8c51f665b2209,5c70852d7826350001565ce4,5ef07ea42d63da59e8d52c0b,True,,,,,,,,,,,,,"<div style=""width:150px;height:56px;font-size:30px;text-align:center;"">correct!</div>",,,,,,,
,p5vs_yn,102,160856,0.0-3.0-2.0-0.3,f078aa2862041786868ef9f2ad23336df49386eb98fe8259951830bdf7c3dbfd,5c70852d7826350001565ce4,"[192, 44, 251, 45, 1, 205, 243, 144, 177, 166, 66, 191, 122, 155, 255, 84, 201, 83, 119, 247, 98, 211, 78, 28, 36, 11, 103, 7, 181, 221, 141, 112]",5ef0634f4ba8c51f665b2209,5c70852d7826350001565ce4,5ef07ea42d63da59e8d52c0b,True,8.0,0.0,844.1993262977048,f,"[0.16666666666666602, -0.33333333333333304]","[[0.33333333333333304, -0.33333333333333304], [0.33333333333333304, -0.16666666666666602], [0.33333333333333304, 0.16666666666666602], [0.33333333333333304, 0.33333333333333304], [-0.16666666666666602, 0], [0, 0], [-0.33333333333333304, 0.16666666666666602], [0, 0.33333333333333304]]",430.0406737020239,f,Q_in_O_vs,,1.0,,,,,,,,,
,html-keyboard-response,103,161859,0.0-3.0-2.0-1.3,f078aa2862041786868ef9f2ad23336df49386eb98fe8259951830bdf7c3dbfd,5c70852d7826350001565ce4,"[192, 44, 251, 45, 1, 205, 243, 144, 177, 166, 66, 191, 122, 155, 255, 84, 201, 83, 119, 247, 98, 211, 78, 28, 36, 11, 103, 7, 181, 221, 141, 112]",5ef0634f4ba8c51f665b2209,5c70852d7826350001565ce4,5ef07ea42d63da59e8d52c0b,True,,,,,,,,,,,,,"<div style=""width:150px;height:56px;font-size:30px;text-align:center;"">correct!</div>",,,,,,,
,p5vs_yn,104,163325,0.0-3.0-2.0-0.4,f078aa2862041786868ef9f2ad23336df49386eb98fe8259951830bdf7c3dbfd,5c70852d7826350001565ce4,"[192, 44, 251, 45, 1, 205, 243, 144, 177, 166, 66, 191, 122, 155, 255, 84, 201, 83, 119, 247, 98, 211, 78, 28, 36, 11, 103, 7, 181, 221, 141, 112]",5ef0634f4ba8c51f665b2209,5c70852d7826350001565ce4,5ef07ea42d63da59e8d52c0b,True,4.0,1.0,793.1168988870922,j,"[0.33333333333333304, 0.16666666666666602]","[[0, -0.16666666666666602], [-0.16666666666666602, 0], [0.33333333333333304, -0.33333333333333304], [-0.16666666666666602, -0.33333333333333304]]",170.00310111325234,j,Q_in_O_vs,,1.0,,,,,,,,,
,html-keyboard-response,105,164327,0.0-3.0-2.0-1.4,f078aa2862041786868ef9f2ad23336df49386eb98fe8259951830bdf7c3dbfd,5c70852d7826350001565ce4,"[192, 44, 251, 45, 1, 205, 243, 144, 177, 166, 66, 191, 122, 155, 255, 84, 201, 83, 119, 247, 98, 211, 78, 28, 36, 11, 103, 7, 181, 221, 141, 112]",5ef0634f4ba8c51f665b2209,5c70852d7826350001565ce4,5ef07ea42d63da59e8d52c0b,True,,,,,,,,,,,,,"<div style=""width:150px;height:56px;font-size:30px;text-align:center;"">correct!</div>",,,,,,,
,p5vs_yn,106,166111,0.0-3.0-2.0-0.5,f078aa2862041786868ef9f2ad23336df49386eb98fe8259951830bdf7c3dbfd,5c70852d7826350001565ce4,"[192, 44, 251, 45, 1, 205, 243, 144, 177, 166, 66, 191, 122, 155, 255, 84, 201, 83, 119, 247, 98, 211, 78, 28, 36, 11, 103, 7, 181, 221, 141, 112]",5ef0634f4ba8c51f665b2209,5c70852d7826350001565ce4,5ef07ea42d63da59e8d52c0b,True,8.0,1.0,863.8361404482275,j,"[0, -0.16666666666666602]","[[-0.33333333333333304, 0.33333333333333304], [0.16666666666666602, 0], [0.33333333333333304, 0], [-0.16666666666666602, -0.16666666666666602], [-0.33333333333333304, 0], [-0.16666666666666602, 0], [0.16666666666666602, 0.16666666666666602], [0, 0.16666666666666602]]",418.1988595519215,j,Q_in_O_vs,,1.0,,,,,,,,,
,html-keyboard-response,107,167115,0.0-3.0-2.0-1.5,f078aa2862041786868ef9f2ad23336df49386eb98fe8259951830bdf7c3dbfd,5c70852d7826350001565ce4,"[192, 44, 251, 45, 1, 205, 243, 144, 177, 166, 66, 191, 122, 155, 255, 84, 201, 83, 119, 247, 98, 211, 78, 28, 36, 11, 103, 7, 181, 221, 141, 112]",5ef0634f4ba8c51f665b2209,5c70852d7826350001565ce4,5ef07ea42d63da59e8d52c0b,True,,,,,,,,,,,,,"<div style=""width:150px;height:56px;font-size:30px;text-align:center;"">correct!</div>",,,,,,,
,p5vs_yn,108,168426,0.0-3.0-2.0-0.6,f078aa2862041786868ef9f2ad23336df49386eb98fe8259951830bdf7c3dbfd,5c70852d7826350001565ce4,"[192, 44, 251, 45, 1, 205, 243, 144, 177, 166, 66, 191, 122, 155, 255, 84, 201, 83, 119, 247, 98, 211, 78, 28, 36, 11, 103, 7, 181, 221, 141, 112]",5ef0634f4ba8c51f665b2209,5c70852d7826350001565ce4,5ef07ea42d63da59e8d52c0b,True,4.0,0.0,549.8034940946964,f,"[-0.33333333333333304, 0.16666666666666602]","[[0.33333333333333304, -0.16666666666666602], [-0.33333333333333304, 0], [-0.16666666666666602, 0.16666666666666602], [-0.33333333333333304, -0.16666666666666602]]",258.2365059060976,f,Q_in_O_vs,,1.0,,,,,,,,,
,html-keyboard-response,109,169428,0.0-3.0-2.0-1.6,f078aa2862041786868ef9f2ad23336df49386eb98fe8259951830bdf7c3dbfd,5c70852d7826350001565ce4,"[192, 44, 251, 45, 1, 205, 243, 144, 177, 166, 66, 191, 122, 155, 255, 84, 201, 83, 119, 247, 98, 211, 78, 28, 36, 11, 103, 7, 181, 221, 141, 112]",5ef0634f4ba8c51f665b2209,5c70852d7826350001565ce4,5ef07ea42d63da59e8d52c0b,True,,,,,,,,,,,,,"<div style=""width:150px;height:56px;font-size:30px;text-align:center;"">correct!</div>",,,,,,,
,p5vs_yn,110,170601,0.0-3.0-2.0-0.7,f078aa2862041786868ef9f2ad23336df49386eb98fe8259951830bdf7c3dbfd,5c70852d7826350001565ce4,"[192, 44, 251, 45, 1, 205, 243, 144, 177, 166, 66, 191, 122, 155, 255, 84, 201, 83, 119, 247, 98, 211, 78, 28, 36, 11, 103, 7, 181, 221, 141, 112]",5ef0634f4ba8c51f665b2209,5c70852d7826350001565ce4,5ef07ea42d63da59e8d52c0b,True,2.0,0.0,646.9454818998347,f,"[0.099999999999999, 0.30000000000000004]","[[-0.30000000000000004, 0.099999999999999], [0.30000000000000004, -0.30000000000000004]]",24.224518099799752,f,Q_in_O_vs,,1.0,,,,,,,,,
,html-keyboard-response,111,171603,0.0-3.0-2.0-1.7,f078aa2862041786868ef9f2ad23336df49386eb98fe8259951830bdf7c3dbfd,5c70852d7826350001565ce4,"[192, 44, 251, 45, 1, 205, 243, 144, 177, 166, 66, 191, 122, 155, 255, 84, 201, 83, 119, 247, 98, 211, 78, 28, 36, 11, 103, 7, 181, 221, 141, 112]",5ef0634f4ba8c51f665b2209,5c70852d7826350001565ce4,5ef07ea42d63da59e8d52c0b,True,,,,,,,,,,,,,"<div style=""width:150px;height:56px;font-size:30px;text-align:center;"">correct!</div>",,,,,,,
,p5vs_yn,112,172915,0.0-3.0-2.0-0.8,f078aa2862041786868ef9f2ad23336df49386eb98fe8259951830bdf7c3dbfd,5c70852d7826350001565ce4,"[192, 44, 251, 45, 1, 205, 243, 144, 177, 166, 66, 191, 122, 155, 255, 84, 201, 83, 119, 247, 98, 211, 78, 28, 36, 11, 103, 7, 181, 221, 141, 112]",5ef0634f4ba8c51f665b2209,5c70852d7826350001565ce4,5ef07ea42d63da59e8d52c0b,True,8.0,1.0,679.1011202940426,j,"[0, 0.16666666666666602]","[[0, 0.33333333333333304], [0, -0.33333333333333304], [-0.33333333333333304, -0.16666666666666602], [-0.33333333333333304, 0.33333333333333304], [-0.33333333333333304, 0], [0, 0], [-0.33333333333333304, 0.16666666666666602], [-0.16666666666666602, -0.16666666666666602]]",130.49887970555574,j,Q_in_O_vs,,1.0,,,,,,,,,
,html-keyboard-response,113,173927,0.0-3.0-2.0-1.8,f078aa2862041786868ef9f2ad23336df49386eb98fe8259951830bdf7c3dbfd,5c70852d7826350001565ce4,"[192, 44, 251, 45, 1, 205, 243, 144, 177, 166, 66, 191, 122, 155, 255, 84, 201, 83, 119, 247, 98, 211, 78, 28, 36, 11, 103, 7, 181, 221, 141, 112]",5ef0634f4ba8c51f665b2209,5c70852d7826350001565ce4,5ef07ea42d63da59e8d52c0b,True,,,,,,,,,,,,,"<div style=""width:150px;height:56px;font-size:30px;text-align:center;"">correct!</div>",,,,,,,
,p5vs_yn,114,175105,0.0-3.0-2.0-0.9,f078aa2862041786868ef9f2ad23336df49386eb98fe8259951830bdf7c3dbfd,5c70852d7826350001565ce4,"[192, 44, 251, 45, 1, 205, 243, 144, 177, 166, 66, 191, 122, 155, 255, 84, 201, 83, 119, 247, 98, 211, 78, 28, 36, 11, 103, 7, 181, 221, 141, 112]",5ef0634f4ba8c51f665b2209,5c70852d7826350001565ce4,5ef07ea42d63da59e8d52c0b,True,1.0,1.0,522.0853439704806,j,"[-0.099999999999999, 0.099999999999999]","[[-0.099999999999999, -0.30000000000000004]]",153.34965602960438,j,Q_in_O_vs,,1.0,,,,,,,,,
,html-keyboard-response,115,176107,0.0-3.0-2.0-1.9,f078aa2862041786868ef9f2ad23336df49386eb98fe8259951830bdf7c3dbfd,5c70852d7826350001565ce4,"[192, 44, 251, 45, 1, 205, 243, 144, 177, 166, 66, 191, 122, 155, 255, 84, 201, 83, 119, 247, 98, 211, 78, 28, 36, 11, 103, 7, 181, 221, 141, 112]",5ef0634f4ba8c51f665b2209,5c70852d7826350001565ce4,5ef07ea42d63da59e8d52c0b,True,,,,,,,,,,,,,"<div style=""width:150px;height:56px;font-size:30px;text-align:center;"">correct!</div>",,,,,,,
,p5vs_yn,116,177164,0.0-3.0-2.0-0.10,f078aa2862041786868ef9f2ad23336df49386eb98fe8259951830bdf7c3dbfd,5c70852d7826350001565ce4,"[192, 44, 251, 45, 1, 205, 243, 144, 177, 166, 66, 191, 122, 155, 255, 84, 201, 83, 119, 247, 98, 211, 78, 28, 36, 11, 103, 7, 181, 221, 141, 112]",5ef0634f4ba8c51f665b2209,5c70852d7826350001565ce4,5ef07ea42d63da59e8d52c0b,True,2.0,1.0,510.27355728912516,j,"[0.099999999999999, 0.099999999999999]","[[-0.30000000000000004, 0.099999999999999], [0.30000000000000004, -0.30000000000000004]]",45.191442710347474,j,Q_in_O_vs,,1.0,,,,,,,,,
,html-keyboard-response,117,178166,0.0-3.0-2.0-1.10,f078aa2862041786868ef9f2ad23336df49386eb98fe8259951830bdf7c3dbfd,5c70852d7826350001565ce4,"[192, 44, 251, 45, 1, 205, 243, 144, 177, 166, 66, 191, 122, 155, 255, 84, 201, 83, 119, 247, 98, 211, 78, 28, 36, 11, 103, 7, 181, 221, 141, 112]",5ef0634f4ba8c51f665b2209,5c70852d7826350001565ce4,5ef07ea42d63da59e8d52c0b,True,,,,,,,,,,,,,"<div style=""width:150px;height:56px;font-size:30px;text-align:center;"">correct!</div>",,,,,,,
,p5vs_yn,118,179467,0.0-3.0-2.0-0.11,f078aa2862041786868ef9f2ad23336df49386eb98fe8259951830bdf7c3dbfd,5c70852d7826350001565ce4,"[192, 44, 251, 45, 1, 205, 243, 144, 177, 166, 66, 191, 122, 155, 255, 84, 201, 83, 119, 247, 98, 211, 78, 28, 36, 11, 103, 7, 181, 221, 141, 112]",5ef0634f4ba8c51f665b2209,5c70852d7826350001565ce4,5ef07ea42d63da59e8d52c0b,True,2.0,0.0,486.45595385006163,f,"[0.30000000000000004, 0.30000000000000004]","[[-0.099999999999999, 0.30000000000000004], [-0.30000000000000004, 0.30000000000000004]]",311.8490461492911,f,Q_in_O_vs,,1.0,,,,,,,,,
,html-keyboard-response,119,180480,0.0-3.0-2.0-1.11,f078aa2862041786868ef9f2ad23336df49386eb98fe8259951830bdf7c3dbfd,5c70852d7826350001565ce4,"[192, 44, 251, 45, 1, 205, 243, 144, 177, 166, 66, 191, 122, 155, 255, 84, 201, 83, 119, 247, 98, 211, 78, 28, 36, 11, 103, 7, 181, 221, 141, 112]",5ef0634f4ba8c51f665b2209,5c70852d7826350001565ce4,5ef07ea42d63da59e8d52c0b,True,,,,,,,,,,,,,"<div style=""width:150px;height:56px;font-size:30px;text-align:center;"">correct!</div>",,,,,,,
,p5vs_yn,120,181578,0.0-3.0-2.0-0.12,f078aa2862041786868ef9f2ad23336df49386eb98fe8259951830bdf7c3dbfd,5c70852d7826350001565ce4,"[192, 44, 251, 45, 1, 205, 243, 144, 177, 166, 66, 191, 122, 155, 255, 84, 201, 83, 119, 247, 98, 211, 78, 28, 36, 11, 103, 7, 181, 221, 141, 112]",5ef0634f4ba8c51f665b2209,5c70852d7826350001565ce4,5ef07ea42d63da59e8d52c0b,True,1.0,0.0,579.6269559768843,f,"[0.30000000000000004, 0.30000000000000004]","[[-0.099999999999999, -0.30000000000000004]]",16.453044023364782,f,Q_in_O_vs,,1.0,,,,,,,,,
,html-keyboard-response,121,182580,0.0-3.0-2.0-1.12,f078aa2862041786868ef9f2ad23336df49386eb98fe8259951830bdf7c3dbfd,5c70852d7826350001565ce4,"[192, 44, 251, 45, 1, 205, 243, 144, 177, 166, 66, 191, 122, 155, 255, 84, 201, 83, 119, 247, 98, 211, 78, 28, 36, 11, 103, 7, 181, 221, 141, 112]",5ef0634f4ba8c51f665b2209,5c70852d7826350001565ce4,5ef07ea42d63da59e8d52c0b,True,,,,,,,,,,,,,"<div style=""width:150px;height:56px;font-size:30px;text-align:center;"">correct!</div>",,,,,,,
,p5vs_yn,122,184145,0.0-3.0-2.0-0.13,f078aa2862041786868ef9f2ad23336df49386eb98fe8259951830bdf7c3dbfd,5c70852d7826350001565ce4,"[192, 44, 251, 45, 1, 205, 243, 144, 177, 166, 66, 191, 122, 155, 255, 84, 201, 83, 119, 247, 98, 211, 78, 28, 36, 11, 103, 7, 181, 221, 141, 112]",5ef0634f4ba8c51f665b2209,5c70852d7826350001565ce4,5ef07ea42d63da59e8d52c0b,True,4.0,1.0,638.8170123927994,j,"[0.16666666666666602, -0.33333333333333304]","[[0.33333333333333304, 0.33333333333333304], [-0.33333333333333304, -0.16666666666666602], [0.16666666666666602, 0.16666666666666602], [-0.16666666666666602, 0.16666666666666602]]",424.5129876071587,j,Q_in_O_vs,,1.0,,,,,,,,,
,html-keyboard-response,123,185147,0.0-3.0-2.0-1.13,f078aa2862041786868ef9f2ad23336df49386eb98fe8259951830bdf7c3dbfd,5c70852d7826350001565ce4,"[192, 44, 251, 45, 1, 205, 243, 144, 177, 166, 66, 191, 122, 155, 255, 84, 201, 83, 119, 247, 98, 211, 78, 28, 36, 11, 103, 7, 181, 221, 141, 112]",5ef0634f4ba8c51f665b2209,5c70852d7826350001565ce4,5ef07ea42d63da59e8d52c0b,True,,,,,,,,,,,,,"<div style=""width:150px;height:56px;font-size:30px;text-align:center;"">correct!</div>",,,,,,,
,p5vs_yn,124,186623,0.0-3.0-2.0-0.14,f078aa2862041786868ef9f2ad23336df49386eb98fe8259951830bdf7c3dbfd,5c70852d7826350001565ce4,"[192, 44, 251, 45, 1, 205, 243, 144, 177, 166, 66, 191, 122, 155, 255, 84, 201, 83, 119, 247, 98, 211, 78, 28, 36, 11, 103, 7, 181, 221, 141, 112]",5ef0634f4ba8c51f665b2209,5c70852d7826350001565ce4,5ef07ea42d63da59e8d52c0b,True,8.0,0.0,756.4140295799007,f,"[-0.33333333333333304, -0.33333333333333304]","[[0.16666666666666602, -0.33333333333333304], [-0.16666666666666602, -0.33333333333333304], [0.33333333333333304, -0.33333333333333304], [-0.33333333333333304, 0.33333333333333304], [0.16666666666666602, 0], [-0.33333333333333304, 0], [-0.33333333333333304, 0.16666666666666602], [0.16666666666666602, 0.33333333333333304]]",217.81597041990608,f,Q_in_O_vs,,1.0,,,,,,,,,
,html-keyboard-response,125,187637,0.0-3.0-2.0-1.14,f078aa2862041786868ef9f2ad23336df49386eb98fe8259951830bdf7c3dbfd,5c70852d7826350001565ce4,"[192, 44, 251, 45, 1, 205, 243, 144, 177, 166, 66, 191, 122, 155, 255, 84, 201, 83, 119, 247, 98, 211, 78, 28, 36, 11, 103, 7, 181, 221, 141, 112]",5ef0634f4ba8c51f665b2209,5c70852d7826350001565ce4,5ef07ea42d63da59e8d52c0b,True,,,,,,,,,,,,,"<div style=""width:150px;height:56px;font-size:30px;text-align:center;"">correct!</div>",,,,,,,
,p5vs_yn,126,188712,0.0-3.0-2.0-0.15,f078aa2862041786868ef9f2ad23336df49386eb98fe8259951830bdf7c3dbfd,5c70852d7826350001565ce4,"[192, 44, 251, 45, 1, 205, 243, 144, 177, 166, 66, 191, 122, 155, 255, 84, 201, 83, 119, 247, 98, 211, 78, 28, 36, 11, 103, 7, 181, 221, 141, 112]",5ef0634f4ba8c51f665b2209,5c70852d7826350001565ce4,5ef07ea42d63da59e8d52c0b,True,4.0,0.0,559.8718389755813,f,"[0, -0.33333333333333304]","[[-0.33333333333333304, 0.33333333333333304], [0.16666666666666602, -0.33333333333333304], [0.33333333333333304, 0.33333333333333304], [-0.33333333333333304, 0.16666666666666602]]",12.983161024749279,f,Q_in_O_vs,,1.0,,,,,,,,,
,html-keyboard-response,127,189714,0.0-3.0-2.0-1.15,f078aa2862041786868ef9f2ad23336df49386eb98fe8259951830bdf7c3dbfd,5c70852d7826350001565ce4,"[192, 44, 251, 45, 1, 205, 243, 144, 177, 166, 66, 191, 122, 155, 255, 84, 201, 83, 119, 247, 98, 211, 78, 28, 36, 11, 103, 7, 181, 221, 141, 112]",5ef0634f4ba8c51f665b2209,5c70852d7826350001565ce4,5ef07ea42d63da59e8d52c0b,True,,,,,,,,,,,,,"<div style=""width:150px;height:56px;font-size:30px;text-align:center;"">correct!</div>",,,,,,,
,p5Text,128,190525,0.0-3.0-3.0,f078aa2862041786868ef9f2ad23336df49386eb98fe8259951830bdf7c3dbfd,5c70852d7826350001565ce4,"[192, 44, 251, 45, 1, 205, 243, 144, 177, 166, 66, 191, 122, 155, 255, 84, 201, 83, 119, 247, 98, 211, 78, 28, 36, 11, 103, 7, 181, 221, 141, 112]",5ef0634f4ba8c51f665b2209,5c70852d7826350001565ce4,5ef07ea42d63da59e8d52c0b,True,,,,,,,,,,,,,,,,,,,,
,p5Text,129,191317,0.0-3.0-4.0,f078aa2862041786868ef9f2ad23336df49386eb98fe8259951830bdf7c3dbfd,5c70852d7826350001565ce4,"[192, 44, 251, 45, 1, 205, 243, 144, 177, 166, 66, 191, 122, 155, 255, 84, 201, 83, 119, 247, 98, 211, 78, 28, 36, 11, 103, 7, 181, 221, 141, 112]",5ef0634f4ba8c51f665b2209,5c70852d7826350001565ce4,5ef07ea42d63da59e8d52c0b,True,,,,,,,,,,,,,,,,,,,,
,p5vs_yn,130,192878,0.0-3.0-5.0-0.0,f078aa2862041786868ef9f2ad23336df49386eb98fe8259951830bdf7c3dbfd,5c70852d7826350001565ce4,"[192, 44, 251, 45, 1, 205, 243, 144, 177, 166, 66, 191, 122, 155, 255, 84, 201, 83, 119, 247, 98, 211, 78, 28, 36, 11, 103, 7, 181, 221, 141, 112]",5ef0634f4ba8c51f665b2209,5c70852d7826350001565ce4,5ef07ea42d63da59e8d52c0b,True,2.0,1.0,718.7286560811044,j,"[-0.30000000000000004, -0.099999999999999]","[[0.30000000000000004, 0.30000000000000004], [0.30000000000000004, -0.099999999999999]]",338.8463439187035,j,Q_in_O_vs,,1.0,,,,,,,,,
,html-keyboard-response,131,193880,0.0-3.0-5.0-1.0,f078aa2862041786868ef9f2ad23336df49386eb98fe8259951830bdf7c3dbfd,5c70852d7826350001565ce4,"[192, 44, 251, 45, 1, 205, 243, 144, 177, 166, 66, 191, 122, 155, 255, 84, 201, 83, 119, 247, 98, 211, 78, 28, 36, 11, 103, 7, 181, 221, 141, 112]",5ef0634f4ba8c51f665b2209,5c70852d7826350001565ce4,5ef07ea42d63da59e8d52c0b,True,,,,,,,,,,,,,"<div style=""width:150px;height:56px;font-size:30px;text-align:center;"">correct!</div>",,,,,,,
,p5vs_yn,132,195197,0.0-3.0-5.0-0.1,f078aa2862041786868ef9f2ad23336df49386eb98fe8259951830bdf7c3dbfd,5c70852d7826350001565ce4,"[192, 44, 251, 45, 1, 205, 243, 144, 177, 166, 66, 191, 122, 155, 255, 84, 201, 83, 119, 247, 98, 211, 78, 28, 36, 11, 103, 7, 181, 221, 141, 112]",5ef0634f4ba8c51f665b2209,5c70852d7826350001565ce4,5ef07ea42d63da59e8d52c0b,True,1.0,0.0,551.2511981387506,f,"[-0.30000000000000004, -0.099999999999999]","[[-0.099999999999999, 0.099999999999999]]",262.91880186181515,f,Q_in_O_vs,,1.0,,,,,,,,,
,html-keyboard-response,133,196198,0.0-3.0-5.0-1.1,f078aa2862041786868ef9f2ad23336df49386eb98fe8259951830bdf7c3dbfd,5c70852d7826350001565ce4,"[192, 44, 251, 45, 1, 205, 243, 144, 177, 166, 66, 191, 122, 155, 255, 84, 201, 83, 119, 247, 98, 211, 78, 28, 36, 11, 103, 7, 181, 221, 141, 112]",5ef0634f4ba8c51f665b2209,5c70852d7826350001565ce4,5ef07ea42d63da59e8d52c0b,True,,,,,,,,,,,,,"<div style=""width:150px;height:56px;font-size:30px;text-align:center;"">correct!</div>",,,,,,,
,p5vs_yn,134,197566,0.0-3.0-5.0-0.2,f078aa2862041786868ef9f2ad23336df49386eb98fe8259951830bdf7c3dbfd,5c70852d7826350001565ce4,"[192, 44, 251, 45, 1, 205, 243, 144, 177, 166, 66, 191, 122, 155, 255, 84, 201, 83, 119, 247, 98, 211, 78, 28, 36, 11, 103, 7, 181, 221, 141, 112]",5ef0634f4ba8c51f665b2209,5c70852d7826350001565ce4,5ef07ea42d63da59e8d52c0b,True,1.0,1.0,583.1029558248702,j,"[-0.30000000000000004, -0.099999999999999]","[[-0.30000000000000004, 0.30000000000000004]]",281.51704417541623,j,Q_in_O_vs,,1.0,,,,,,,,,
,html-keyboard-response,135,198568,0.0-3.0-5.0-1.2,f078aa2862041786868ef9f2ad23336df49386eb98fe8259951830bdf7c3dbfd,5c70852d7826350001565ce4,"[192, 44, 251, 45, 1, 205, 243, 144, 177, 166, 66, 191, 122, 155, 255, 84, 201, 83, 119, 247, 98, 211, 78, 28, 36, 11, 103, 7, 181, 221, 141, 112]",5ef0634f4ba8c51f665b2209,5c70852d7826350001565ce4,5ef07ea42d63da59e8d52c0b,True,,,,,,,,,,,,,"<div style=""width:150px;height:56px;font-size:30px;text-align:center;"">correct!</div>",,,,,,,
,p5vs_yn,136,199858,0.0-3.0-5.0-0.3,f078aa2862041786868ef9f2ad23336df49386eb98fe8259951830bdf7c3dbfd,5c70852d7826350001565ce4,"[192, 44, 251, 45, 1, 205, 243, 144, 177, 166, 66, 191, 122, 155, 255, 84, 201, 83, 119, 247, 98, 211, 78, 28, 36, 11, 103, 7, 181, 221, 141, 112]",5ef0634f4ba8c51f665b2209,5c70852d7826350001565ce4,5ef07ea42d63da59e8d52c0b,True,4.0,1.0,645.1183907893428,j,"[0.16666666666666602, -0.33333333333333304]","[[-0.16666666666666602, 0.33333333333333304], [-0.16666666666666602, 0], [-0.33333333333333304, 0.33333333333333304], [-0.33333333333333304, -0.33333333333333304]]",141.94160921033472,j,Q_in_O_vs,,1.0,,,,,,,,,
,html-keyboard-response,137,200860,0.0-3.0-5.0-1.3,f078aa2862041786868ef9f2ad23336df49386eb98fe8259951830bdf7c3dbfd,5c70852d7826350001565ce4,"[192, 44, 251, 45, 1, 205, 243, 144, 177, 166, 66, 191, 122, 155, 255, 84, 201, 83, 119, 247, 98, 211, 78, 28, 36, 11, 103, 7, 181, 221, 141, 112]",5ef0634f4ba8c51f665b2209,5c70852d7826350001565ce4,5ef07ea42d63da59e8d52c0b,True,,,,,,,,,,,,,"<div style=""width:150px;height:56px;font-size:30px;text-align:center;"">correct!</div>",,,,,,,
,p5vs_yn,138,201979,0.0-3.0-5.0-0.4,f078aa2862041786868ef9f2ad23336df49386eb98fe8259951830bdf7c3dbfd,5c70852d7826350001565ce4,"[192, 44, 251, 45, 1, 205, 243, 144, 177, 166, 66, 191, 122, 155, 255, 84, 201, 83, 119, 247, 98, 211, 78, 28, 36, 11, 103, 7, 181, 221, 141, 112]",5ef0634f4ba8c51f665b2209,5c70852d7826350001565ce4,5ef07ea42d63da59e8d52c0b,True,4.0,0.0,607.4341604289657,f,"[-0.33333333333333304, 0.33333333333333304]","[[-0.16666666666666602, -0.33333333333333304], [0.33333333333333304, 0], [0.16666666666666602, 0], [-0.16666666666666602, -0.16666666666666602]]",8.850839571096003,f,Q_in_O_vs,,1.0,,,,,,,,,
,html-keyboard-response,139,202982,0.0-3.0-5.0-1.4,f078aa2862041786868ef9f2ad23336df49386eb98fe8259951830bdf7c3dbfd,5c70852d7826350001565ce4,"[192, 44, 251, 45, 1, 205, 243, 144, 177, 166, 66, 191, 122, 155, 255, 84, 201, 83, 119, 247, 98, 211, 78, 28, 36, 11, 103, 7, 181, 221, 141, 112]",5ef0634f4ba8c51f665b2209,5c70852d7826350001565ce4,5ef07ea42d63da59e8d52c0b,True,,,,,,,,,,,,,"<div style=""width:150px;height:56px;font-size:30px;text-align:center;"">correct!</div>",,,,,,,
,p5vs_yn,140,204216,0.0-3.0-5.0-0.5,f078aa2862041786868ef9f2ad23336df49386eb98fe8259951830bdf7c3dbfd,5c70852d7826350001565ce4,"[192, 44, 251, 45, 1, 205, 243, 144, 177, 166, 66, 191, 122, 155, 255, 84, 201, 83, 119, 247, 98, 211, 78, 28, 36, 11, 103, 7, 181, 221, 141, 112]",5ef0634f4ba8c51f665b2209,5c70852d7826350001565ce4,5ef07ea42d63da59e8d52c0b,True,2.0,0.0,529.1031492097245,f,"[-0.099999999999999, -0.099999999999999]","[[-0.30000000000000004, 0.099999999999999], [0.099999999999999, 0.30000000000000004]]",202.7318507898599,f,Q_in_O_vs,,1.0,,,,,,,,,
,html-keyboard-response,141,205227,0.0-3.0-5.0-1.5,f078aa2862041786868ef9f2ad23336df49386eb98fe8259951830bdf7c3dbfd,5c70852d7826350001565ce4,"[192, 44, 251, 45, 1, 205, 243, 144, 177, 166, 66, 191, 122, 155, 255, 84, 201, 83, 119, 247, 98, 211, 78, 28, 36, 11, 103, 7, 181, 221, 141, 112]",5ef0634f4ba8c51f665b2209,5c70852d7826350001565ce4,5ef07ea42d63da59e8d52c0b,True,,,,,,,,,,,,,"<div style=""width:150px;height:56px;font-size:30px;text-align:center;"">correct!</div>",,,,,,,
,p5vs_yn,142,206363,0.0-3.0-5.0-0.6,f078aa2862041786868ef9f2ad23336df49386eb98fe8259951830bdf7c3dbfd,5c70852d7826350001565ce4,"[192, 44, 251, 45, 1, 205, 243, 144, 177, 166, 66, 191, 122, 155, 255, 84, 201, 83, 119, 247, 98, 211, 78, 28, 36, 11, 103, 7, 181, 221, 141, 112]",5ef0634f4ba8c51f665b2209,5c70852d7826350001565ce4,5ef07ea42d63da59e8d52c0b,True,8.0,1.0,558.4615574916825,j,"[0.16666666666666602, 0.33333333333333304]","[[-0.16666666666666602, 0], [-0.33333333333333304, 0.33333333333333304], [0, 0], [0.16666666666666602, -0.33333333333333304], [-0.16666666666666602, -0.33333333333333304], [-0.16666666666666602, -0.16666666666666602], [0.16666666666666602, -0.16666666666666602], [0.16666666666666602, 0.16666666666666602]]",74.74844250828028,j,Q_in_O_vs,,1.0,,,,,,,,,
,html-keyboard-response,143,207364,0.0-3.0-5.0-1.6,f078aa2862041786868ef9f2ad23336df49386eb98fe8259951830bdf7c3dbfd,5c70852d7826350001565ce4,"[192, 44, 251, 45, 1, 205, 243, 144, 177, 166, 66, 191, 122, 155, 255, 84, 201, 83, 119, 247, 98, 211, 78, 28, 36, 11, 103, 7, 181, 221, 141, 112]",5ef0634f4ba8c51f665b2209,5c70852d7826350001565ce4,5ef07ea42d63da59e8d52c0b,True,,,,,,,,,,,,,"<div style=""width:150px;height:56px;font-size:30px;text-align:center;"">correct!</div>",,,,,,,
,p5vs_yn,144,208749,0.0-3.0-5.0-0.7,f078aa2862041786868ef9f2ad23336df49386eb98fe8259951830bdf7c3dbfd,5c70852d7826350001565ce4,"[192, 44, 251, 45, 1, 205, 243, 144, 177, 166, 66, 191, 122, 155, 255, 84, 201, 83, 119, 247, 98, 211, 78, 28, 36, 11, 103, 7, 181, 221, 141, 112]",5ef0634f4ba8c51f665b2209,5c70852d7826350001565ce4,5ef07ea42d63da59e8d52c0b,True,8.0,0.0,597.1052504664985,f,"[0.16666666666666602, 0]","[[-0.33333333333333304, -0.16666666666666602], [0.16666666666666602, -0.16666666666666602], [-0.33333333333333304, 0.16666666666666602], [0.16666666666666602, -0.33333333333333304], [0, -0.16666666666666602], [0, 0.16666666666666602], [-0.33333333333333304, 0], [0, -0.33333333333333304]]",285.61474953312427,f,Q_in_O_vs,,1.0,,,,,,,,,
,html-keyboard-response,145,209752,0.0-3.0-5.0-1.7,f078aa2862041786868ef9f2ad23336df49386eb98fe8259951830bdf7c3dbfd,5c70852d7826350001565ce4,"[192, 44, 251, 45, 1, 205, 243, 144, 177, 166, 66, 191, 122, 155, 255, 84, 201, 83, 119, 247, 98, 211, 78, 28, 36, 11, 103, 7, 181, 221, 141, 112]",5ef0634f4ba8c51f665b2209,5c70852d7826350001565ce4,5ef07ea42d63da59e8d52c0b,True,,,,,,,,,,,,,"<div style=""width:150px;height:56px;font-size:30px;text-align:center;"">correct!</div>",,,,,,,
,p5vs_yn,146,210995,0.0-3.0-5.0-0.8,f078aa2862041786868ef9f2ad23336df49386eb98fe8259951830bdf7c3dbfd,5c70852d7826350001565ce4,"[192, 44, 251, 45, 1, 205, 243, 144, 177, 166, 66, 191, 122, 155, 255, 84, 201, 83, 119, 247, 98, 211, 78, 28, 36, 11, 103, 7, 181, 221, 141, 112]",5ef0634f4ba8c51f665b2209,5c70852d7826350001565ce4,5ef07ea42d63da59e8d52c0b,True,8.0,0.0,625.1792664943496,f,"[0.33333333333333304, 0.33333333333333304]","[[0, -0.33333333333333304], [0.33333333333333304, -0.33333333333333304], [0.33333333333333304, 0], [0.33333333333333304, 0.16666666666666602], [0, 0.33333333333333304], [-0.33333333333333304, 0.33333333333333304], [-0.33333333333333304, -0.33333333333333304], [-0.16666666666666602, -0.33333333333333304]]",115.12073350604624,f,Q_in_O_vs,,1.0,,,,,,,,,
,html-keyboard-response,147,212008,0.0-3.0-5.0-1.8,f078aa2862041786868ef9f2ad23336df49386eb98fe8259951830bdf7c3dbfd,5c70852d7826350001565ce4,"[192, 44, 251, 45, 1, 205, 243, 144, 177, 166, 66, 191, 122, 155, 255, 84, 201, 83, 119, 247, 98, 211, 78, 28, 36, 11, 103, 7, 181, 221, 141, 112]",5ef0634f4ba8c51f665b2209,5c70852d7826350001565ce4,5ef07ea42d63da59e8d52c0b,True,,,,,,,,,,,,,"<div style=""width:150px;height:56px;font-size:30px;text-align:center;"">correct!</div>",,,,,,,
,p5vs_yn,148,213733,0.0-3.0-5.0-0.9,f078aa2862041786868ef9f2ad23336df49386eb98fe8259951830bdf7c3dbfd,5c70852d7826350001565ce4,"[192, 44, 251, 45, 1, 205, 243, 144, 177, 166, 66, 191, 122, 155, 255, 84, 201, 83, 119, 247, 98, 211, 78, 28, 36, 11, 103, 7, 181, 221, 141, 112]",5ef0634f4ba8c51f665b2209,5c70852d7826350001565ce4,5ef07ea42d63da59e8d52c0b,True,8.0,1.0,738.0425237997842,j,"[-0.33333333333333304, 0]","[[0.33333333333333304, 0.16666666666666602], [0, -0.16666666666666602], [-0.33333333333333304, -0.33333333333333304], [-0.16666666666666602, -0.33333333333333304], [0.33333333333333304, -0.33333333333333304], [0, 0], [0.16666666666666602, -0.16666666666666602], [0.33333333333333304, 0.33333333333333304]]",484.8574761999771,j,Q_in_O_vs,,1.0,,,,,,,,,
,html-keyboard-response,149,214735,0.0-3.0-5.0-1.9,f078aa2862041786868ef9f2ad23336df49386eb98fe8259951830bdf7c3dbfd,5c70852d7826350001565ce4,"[192, 44, 251, 45, 1, 205, 243, 144, 177, 166, 66, 191, 122, 155, 255, 84, 201, 83, 119, 247, 98, 211, 78, 28, 36, 11, 103, 7, 181, 221, 141, 112]",5ef0634f4ba8c51f665b2209,5c70852d7826350001565ce4,5ef07ea42d63da59e8d52c0b,True,,,,,,,,,,,,,"<div style=""width:150px;height:56px;font-size:30px;text-align:center;"">correct!</div>",,,,,,,
,p5vs_yn,150,215977,0.0-3.0-5.0-0.10,f078aa2862041786868ef9f2ad23336df49386eb98fe8259951830bdf7c3dbfd,5c70852d7826350001565ce4,"[192, 44, 251, 45, 1, 205, 243, 144, 177, 166, 66, 191, 122, 155, 255, 84, 201, 83, 119, 247, 98, 211, 78, 28, 36, 11, 103, 7, 181, 221, 141, 112]",5ef0634f4ba8c51f665b2209,5c70852d7826350001565ce4,5ef07ea42d63da59e8d52c0b,True,2.0,0.0,579.5708419054863,f,"[-0.30000000000000004, 0.30000000000000004]","[[0.099999999999999, 0.30000000000000004], [0.30000000000000004, -0.30000000000000004]]",160.14915809500962,f,Q_in_O_vs,,1.0,,,,,,,,,
,html-keyboard-response,151,216979,0.0-3.0-5.0-1.10,f078aa2862041786868ef9f2ad23336df49386eb98fe8259951830bdf7c3dbfd,5c70852d7826350001565ce4,"[192, 44, 251, 45, 1, 205, 243, 144, 177, 166, 66, 191, 122, 155, 255, 84, 201, 83, 119, 247, 98, 211, 78, 28, 36, 11, 103, 7, 181, 221, 141, 112]",5ef0634f4ba8c51f665b2209,5c70852d7826350001565ce4,5ef07ea42d63da59e8d52c0b,True,,,,,,,,,,,,,"<div style=""width:150px;height:56px;font-size:30px;text-align:center;"">correct!</div>",,,,,,,
,p5vs_yn,152,218476,0.0-3.0-5.0-0.11,f078aa2862041786868ef9f2ad23336df49386eb98fe8259951830bdf7c3dbfd,5c70852d7826350001565ce4,"[192, 44, 251, 45, 1, 205, 243, 144, 177, 166, 66, 191, 122, 155, 255, 84, 201, 83, 119, 247, 98, 211, 78, 28, 36, 11, 103, 7, 181, 221, 141, 112]",5ef0634f4ba8c51f665b2209,5c70852d7826350001565ce4,5ef07ea42d63da59e8d52c0b,True,4.0,1.0,548.6832963024499,f,"[-0.16666666666666602, 0]","[[0.16666666666666602, -0.16666666666666602], [0.33333333333333304, -0.16666666666666602], [-0.33333333333333304, -0.16666666666666602], [-0.33333333333333304, 0.16666666666666602]]",445.7217036979273,j,Q_in_O_vs,,0.0,,,,,,,,,
,html-keyboard-response,153,219990,0.0-3.0-5.0-1.11,f078aa2862041786868ef9f2ad23336df49386eb98fe8259951830bdf7c3dbfd,5c70852d7826350001565ce4,"[192, 44, 251, 45, 1, 205, 243, 144, 177, 166, 66, 191, 122, 155, 255, 84, 201, 83, 119, 247, 98, 211, 78, 28, 36, 11, 103, 7, 181, 221, 141, 112]",5ef0634f4ba8c51f665b2209,5c70852d7826350001565ce4,5ef07ea42d63da59e8d52c0b,True,,,,,,,,,,,,,"<div style=""width:150px;height:56px;border:0px;font-size:30px;text-align:center"">wrong.</div>",,,,,,,
,p5vs_yn,154,221392,0.0-3.0-5.0-0.12,f078aa2862041786868ef9f2ad23336df49386eb98fe8259951830bdf7c3dbfd,5c70852d7826350001565ce4,"[192, 44, 251, 45, 1, 205, 243, 144, 177, 166, 66, 191, 122, 155, 255, 84, 201, 83, 119, 247, 98, 211, 78, 28, 36, 11, 103, 7, 181, 221, 141, 112]",5ef0634f4ba8c51f665b2209,5c70852d7826350001565ce4,5ef07ea42d63da59e8d52c0b,True,1.0,1.0,635.5844685895136,j,"[-0.099999999999999, 0.099999999999999]","[[0.30000000000000004, 0.099999999999999]]",264.4755314104259,j,Q_in_O_vs,,1.0,,,,,,,,,
,html-keyboard-response,155,222395,0.0-3.0-5.0-1.12,f078aa2862041786868ef9f2ad23336df49386eb98fe8259951830bdf7c3dbfd,5c70852d7826350001565ce4,"[192, 44, 251, 45, 1, 205, 243, 144, 177, 166, 66, 191, 122, 155, 255, 84, 201, 83, 119, 247, 98, 211, 78, 28, 36, 11, 103, 7, 181, 221, 141, 112]",5ef0634f4ba8c51f665b2209,5c70852d7826350001565ce4,5ef07ea42d63da59e8d52c0b,True,,,,,,,,,,,,,"<div style=""width:150px;height:56px;font-size:30px;text-align:center;"">correct!</div>",,,,,,,
,p5vs_yn,156,224024,0.0-3.0-5.0-0.13,f078aa2862041786868ef9f2ad23336df49386eb98fe8259951830bdf7c3dbfd,5c70852d7826350001565ce4,"[192, 44, 251, 45, 1, 205, 243, 144, 177, 166, 66, 191, 122, 155, 255, 84, 201, 83, 119, 247, 98, 211, 78, 28, 36, 11, 103, 7, 181, 221, 141, 112]",5ef0634f4ba8c51f665b2209,5c70852d7826350001565ce4,5ef07ea42d63da59e8d52c0b,True,2.0,1.0,746.8942743280495,j,"[-0.30000000000000004, -0.30000000000000004]","[[0.099999999999999, -0.099999999999999], [-0.30000000000000004, -0.099999999999999]]",379.39572567120194,j,Q_in_O_vs,,1.0,,,,,,,,,
,html-keyboard-response,157,225026,0.0-3.0-5.0-1.13,f078aa2862041786868ef9f2ad23336df49386eb98fe8259951830bdf7c3dbfd,5c70852d7826350001565ce4,"[192, 44, 251, 45, 1, 205, 243, 144, 177, 166, 66, 191, 122, 155, 255, 84, 201, 83, 119, 247, 98, 211, 78, 28, 36, 11, 103, 7, 181, 221, 141, 112]",5ef0634f4ba8c51f665b2209,5c70852d7826350001565ce4,5ef07ea42d63da59e8d52c0b,True,,,,,,,,,,,,,"<div style=""width:150px;height:56px;font-size:30px;text-align:center;"">correct!</div>",,,,,,,
,p5vs_yn,158,226579,0.0-3.0-5.0-0.14,f078aa2862041786868ef9f2ad23336df49386eb98fe8259951830bdf7c3dbfd,5c70852d7826350001565ce4,"[192, 44, 251, 45, 1, 205, 243, 144, 177, 166, 66, 191, 122, 155, 255, 84, 201, 83, 119, 247, 98, 211, 78, 28, 36, 11, 103, 7, 181, 221, 141, 112]",5ef0634f4ba8c51f665b2209,5c70852d7826350001565ce4,5ef07ea42d63da59e8d52c0b,True,4.0,0.0,718.6369194269064,f,"[-0.16666666666666602, -0.16666666666666602]","[[-0.16666666666666602, -0.33333333333333304], [-0.33333333333333304, -0.16666666666666602], [0, 0.16666666666666602], [0.33333333333333304, 0.16666666666666602]]",331.3680805731565,f,Q_in_O_vs,,1.0,,,,,,,,,
,html-keyboard-response,159,227593,0.0-3.0-5.0-1.14,f078aa2862041786868ef9f2ad23336df49386eb98fe8259951830bdf7c3dbfd,5c70852d7826350001565ce4,"[192, 44, 251, 45, 1, 205, 243, 144, 177, 166, 66, 191, 122, 155, 255, 84, 201, 83, 119, 247, 98, 211, 78, 28, 36, 11, 103, 7, 181, 221, 141, 112]",5ef0634f4ba8c51f665b2209,5c70852d7826350001565ce4,5ef07ea42d63da59e8d52c0b,True,,,,,,,,,,,,,"<div style=""width:150px;height:56px;font-size:30px;text-align:center;"">correct!</div>",,,,,,,
,p5vs_yn,160,228955,0.0-3.0-5.0-0.15,f078aa2862041786868ef9f2ad23336df49386eb98fe8259951830bdf7c3dbfd,5c70852d7826350001565ce4,"[192, 44, 251, 45, 1, 205, 243, 144, 177, 166, 66, 191, 122, 155, 255, 84, 201, 83, 119, 247, 98, 211, 78, 28, 36, 11, 103, 7, 181, 221, 141, 112]",5ef0634f4ba8c51f665b2209,5c70852d7826350001565ce4,5ef07ea42d63da59e8d52c0b,True,1.0,0.0,528.9163183670025,f,"[-0.099999999999999, 0.099999999999999]","[[-0.099999999999999, -0.099999999999999]]",330.78868163283914,f,Q_in_O_vs,,1.0,,,,,,,,,
,html-keyboard-response,161,229958,0.0-3.0-5.0-1.15,f078aa2862041786868ef9f2ad23336df49386eb98fe8259951830bdf7c3dbfd,5c70852d7826350001565ce4,"[192, 44, 251, 45, 1, 205, 243, 144, 177, 166, 66, 191, 122, 155, 255, 84, 201, 83, 119, 247, 98, 211, 78, 28, 36, 11, 103, 7, 181, 221, 141, 112]",5ef0634f4ba8c51f665b2209,5c70852d7826350001565ce4,5ef07ea42d63da59e8d52c0b,True,,,,,,,,,,,,,"<div style=""width:150px;height:56px;font-size:30px;text-align:center;"">correct!</div>",,,,,,,
,p5Text,162,231454,0.0-3.0-6.0,f078aa2862041786868ef9f2ad23336df49386eb98fe8259951830bdf7c3dbfd,5c70852d7826350001565ce4,"[192, 44, 251, 45, 1, 205, 243, 144, 177, 166, 66, 191, 122, 155, 255, 84, 201, 83, 119, 247, 98, 211, 78, 28, 36, 11, 103, 7, 181, 221, 141, 112]",5ef0634f4ba8c51f665b2209,5c70852d7826350001565ce4,5ef07ea42d63da59e8d52c0b,True,,,,,,,,,,,,,,,,,,,,
,call-function,163,231455,0.0-3.0-7.0,f078aa2862041786868ef9f2ad23336df49386eb98fe8259951830bdf7c3dbfd,5c70852d7826350001565ce4,"[192, 44, 251, 45, 1, 205, 243, 144, 177, 166, 66, 191, 122, 155, 255, 84, 201, 83, 119, 247, 98, 211, 78, 28, 36, 11, 103, 7, 181, 221, 141, 112]",5ef0634f4ba8c51f665b2209,5c70852d7826350001565ce4,5ef07ea42d63da59e8d52c0b,True,,,,,,,,,,,,,,,,,,,,
,p5Text,164,250532,0.0-4.0-0.0,f078aa2862041786868ef9f2ad23336df49386eb98fe8259951830bdf7c3dbfd,5c70852d7826350001565ce4,"[192, 44, 251, 45, 1, 205, 243, 144, 177, 166, 66, 191, 122, 155, 255, 84, 201, 83, 119, 247, 98, 211, 78, 28, 36, 11, 103, 7, 181, 221, 141, 112]",5ef0634f4ba8c51f665b2209,5c70852d7826350001565ce4,5ef07ea42d63da59e8d52c0b,True,,,,,,,,,,,,,,,,,,,,
,disc,165,252605,0.0-4.0-1.0-0.0,f078aa2862041786868ef9f2ad23336df49386eb98fe8259951830bdf7c3dbfd,5c70852d7826350001565ce4,"[192, 44, 251, 45, 1, 205, 243, 144, 177, 166, 66, 191, 122, 155, 255, 84, 201, 83, 119, 247, 98, 211, 78, 28, 36, 11, 103, 7, 181, 221, 141, 112]",5ef0634f4ba8c51f665b2209,5c70852d7826350001565ce4,5ef07ea42d63da59e8d52c0b,True,,,1564.3300000001618,q,,,,q,disc_practice,,1.0,,,,1.0,50.0,,,,
,html-keyboard-response,166,253607,0.0-4.0-1.0-1.0,f078aa2862041786868ef9f2ad23336df49386eb98fe8259951830bdf7c3dbfd,5c70852d7826350001565ce4,"[192, 44, 251, 45, 1, 205, 243, 144, 177, 166, 66, 191, 122, 155, 255, 84, 201, 83, 119, 247, 98, 211, 78, 28, 36, 11, 103, 7, 181, 221, 141, 112]",5ef0634f4ba8c51f665b2209,5c70852d7826350001565ce4,5ef07ea42d63da59e8d52c0b,True,,,,,,,,,,,,,"<div style=""width:150px;height:56px;font-size:30px;text-align:center;"">correct!</div>",,,,,,,
,disc,167,255111,0.0-4.0-1.0-0.1,f078aa2862041786868ef9f2ad23336df49386eb98fe8259951830bdf7c3dbfd,5c70852d7826350001565ce4,"[192, 44, 251, 45, 1, 205, 243, 144, 177, 166, 66, 191, 122, 155, 255, 84, 201, 83, 119, 247, 98, 211, 78, 28, 36, 11, 103, 7, 181, 221, 141, 112]",5ef0634f4ba8c51f665b2209,5c70852d7826350001565ce4,5ef07ea42d63da59e8d52c0b,True,,,1001.365000000078,q,,,,w,disc_practice,,0.0,,,,2.0,50.0,,,,
,html-keyboard-response,168,256614,0.0-4.0-1.0-1.1,f078aa2862041786868ef9f2ad23336df49386eb98fe8259951830bdf7c3dbfd,5c70852d7826350001565ce4,"[192, 44, 251, 45, 1, 205, 243, 144, 177, 166, 66, 191, 122, 155, 255, 84, 201, 83, 119, 247, 98, 211, 78, 28, 36, 11, 103, 7, 181, 221, 141, 112]",5ef0634f4ba8c51f665b2209,5c70852d7826350001565ce4,5ef07ea42d63da59e8d52c0b,True,,,,,,,,,,,,,"<div style=""width:150px;height:56px;border:0px;font-size:30px;text-align:center"">wrong.</div>",,,,,,,
,disc,169,257868,0.0-4.0-1.0-0.2,f078aa2862041786868ef9f2ad23336df49386eb98fe8259951830bdf7c3dbfd,5c70852d7826350001565ce4,"[192, 44, 251, 45, 1, 205, 243, 144, 177, 166, 66, 191, 122, 155, 255, 84, 201, 83, 119, 247, 98, 211, 78, 28, 36, 11, 103, 7, 181, 221, 141, 112]",5ef0634f4ba8c51f665b2209,5c70852d7826350001565ce4,5ef07ea42d63da59e8d52c0b,True,,,751.5849999999919,q,,,,q,disc_practice,,1.0,,,,1.0,55.55555555555556,,,,
,html-keyboard-response,170,258872,0.0-4.0-1.0-1.2,f078aa2862041786868ef9f2ad23336df49386eb98fe8259951830bdf7c3dbfd,5c70852d7826350001565ce4,"[192, 44, 251, 45, 1, 205, 243, 144, 177, 166, 66, 191, 122, 155, 255, 84, 201, 83, 119, 247, 98, 211, 78, 28, 36, 11, 103, 7, 181, 221, 141, 112]",5ef0634f4ba8c51f665b2209,5c70852d7826350001565ce4,5ef07ea42d63da59e8d52c0b,True,,,,,,,,,,,,,"<div style=""width:150px;height:56px;font-size:30px;text-align:center;"">correct!</div>",,,,,,,
,disc,171,259971,0.0-4.0-1.0-0.3,f078aa2862041786868ef9f2ad23336df49386eb98fe8259951830bdf7c3dbfd,5c70852d7826350001565ce4,"[192, 44, 251, 45, 1, 205, 243, 144, 177, 166, 66, 191, 122, 155, 255, 84, 201, 83, 119, 247, 98, 211, 78, 28, 36, 11, 103, 7, 181, 221, 141, 112]",5ef0634f4ba8c51f665b2209,5c70852d7826350001565ce4,5ef07ea42d63da59e8d52c0b,True,,,596.6550000002899,w,,,,w,disc_practice,,1.0,,,,2.0,55.55555555555556,,,,
,html-keyboard-response,172,260975,0.0-4.0-1.0-1.3,f078aa2862041786868ef9f2ad23336df49386eb98fe8259951830bdf7c3dbfd,5c70852d7826350001565ce4,"[192, 44, 251, 45, 1, 205, 243, 144, 177, 166, 66, 191, 122, 155, 255, 84, 201, 83, 119, 247, 98, 211, 78, 28, 36, 11, 103, 7, 181, 221, 141, 112]",5ef0634f4ba8c51f665b2209,5c70852d7826350001565ce4,5ef07ea42d63da59e8d52c0b,True,,,,,,,,,,,,,"<div style=""width:150px;height:56px;font-size:30px;text-align:center;"">correct!</div>",,,,,,,
,p5Text,173,263077,0.0-4.0-2.0,f078aa2862041786868ef9f2ad23336df49386eb98fe8259951830bdf7c3dbfd,5c70852d7826350001565ce4,"[192, 44, 251, 45, 1, 205, 243, 144, 177, 166, 66, 191, 122, 155, 255, 84, 201, 83, 119, 247, 98, 211, 78, 28, 36, 11, 103, 7, 181, 221, 141, 112]",5ef0634f4ba8c51f665b2209,5c70852d7826350001565ce4,5ef07ea42d63da59e8d52c0b,True,,,,,,,,,,,,,,,,,,,,
,disc,174,270851,0.0-4.0-3.0-0.0,f078aa2862041786868ef9f2ad23336df49386eb98fe8259951830bdf7c3dbfd,5c70852d7826350001565ce4,"[192, 44, 251, 45, 1, 205, 243, 144, 177, 166, 66, 191, 122, 155, 255, 84, 201, 83, 119, 247, 98, 211, 78, 28, 36, 11, 103, 7, 181, 221, 141, 112]",5ef0634f4ba8c51f665b2209,5c70852d7826350001565ce4,5ef07ea42d63da59e8d52c0b,True,,,686.9200000001001,q,,,,w,disc_practice_conf,,0.0,,,,2.0,50.0,0.5287888461059851,5870.0449999996345,,
,html-keyboard-response,175,272354,0.0-4.0-3.0-1.0,f078aa2862041786868ef9f2ad23336df49386eb98fe8259951830bdf7c3dbfd,5c70852d7826350001565ce4,"[192, 44, 251, 45, 1, 205, 243, 144, 177, 166, 66, 191, 122, 155, 255, 84, 201, 83, 119, 247, 98, 211, 78, 28, 36, 11, 103, 7, 181, 221, 141, 112]",5ef0634f4ba8c51f665b2209,5c70852d7826350001565ce4,5ef07ea42d63da59e8d52c0b,True,,,,,,,,,,,,,"<div style=""width:150px;height:56px;border:0px;font-size:30px;text-align:center"">wrong.</div>",,,,,,,
,disc,176,275957,0.0-4.0-3.0-0.1,f078aa2862041786868ef9f2ad23336df49386eb98fe8259951830bdf7c3dbfd,5c70852d7826350001565ce4,"[192, 44, 251, 45, 1, 205, 243, 144, 177, 166, 66, 191, 122, 155, 255, 84, 201, 83, 119, 247, 98, 211, 78, 28, 36, 11, 103, 7, 181, 221, 141, 112]",5ef0634f4ba8c51f665b2209,5c70852d7826350001565ce4,5ef07ea42d63da59e8d52c0b,True,,,1059.4999999993597,q,,,,q,disc_practice_conf,,1.0,,,,1.0,55.55555555555556,1.0,1333.0250000008382,,
,html-keyboard-response,177,276960,0.0-4.0-3.0-1.1,f078aa2862041786868ef9f2ad23336df49386eb98fe8259951830bdf7c3dbfd,5c70852d7826350001565ce4,"[192, 44, 251, 45, 1, 205, 243, 144, 177, 166, 66, 191, 122, 155, 255, 84, 201, 83, 119, 247, 98, 211, 78, 28, 36, 11, 103, 7, 181, 221, 141, 112]",5ef0634f4ba8c51f665b2209,5c70852d7826350001565ce4,5ef07ea42d63da59e8d52c0b,True,,,,,,,,,,,,,"<div style=""width:150px;height:56px;font-size:30px;text-align:center;"">correct!</div>",,,,,,,
,disc,178,280836,0.0-4.0-3.0-0.2,f078aa2862041786868ef9f2ad23336df49386eb98fe8259951830bdf7c3dbfd,5c70852d7826350001565ce4,"[192, 44, 251, 45, 1, 205, 243, 144, 177, 166, 66, 191, 122, 155, 255, 84, 201, 83, 119, 247, 98, 211, 78, 28, 36, 11, 103, 7, 181, 221, 141, 112]",5ef0634f4ba8c51f665b2209,5c70852d7826350001565ce4,5ef07ea42d63da59e8d52c0b,True,,,763.7350000004517,w,,,,w,disc_practice_conf,,1.0,,,,2.0,55.55555555555556,1.0,1902.0350000000908,,
,html-keyboard-response,179,281840,0.0-4.0-3.0-1.2,f078aa2862041786868ef9f2ad23336df49386eb98fe8259951830bdf7c3dbfd,5c70852d7826350001565ce4,"[192, 44, 251, 45, 1, 205, 243, 144, 177, 166, 66, 191, 122, 155, 255, 84, 201, 83, 119, 247, 98, 211, 78, 28, 36, 11, 103, 7, 181, 221, 141, 112]",5ef0634f4ba8c51f665b2209,5c70852d7826350001565ce4,5ef07ea42d63da59e8d52c0b,True,,,,,,,,,,,,,"<div style=""width:150px;height:56px;font-size:30px;text-align:center;"">correct!</div>",,,,,,,
,disc,180,284986,0.0-4.0-3.0-0.3,f078aa2862041786868ef9f2ad23336df49386eb98fe8259951830bdf7c3dbfd,5c70852d7826350001565ce4,"[192, 44, 251, 45, 1, 205, 243, 144, 177, 166, 66, 191, 122, 155, 255, 84, 201, 83, 119, 247, 98, 211, 78, 28, 36, 11, 103, 7, 181, 221, 141, 112]",5ef0634f4ba8c51f665b2209,5c70852d7826350001565ce4,5ef07ea42d63da59e8d52c0b,True,,,735.9249999999884,q,,,,q,disc_practice_conf,,1.0,,,,1.0,50.0,1.0,1166.1699999994598,,
,html-keyboard-response,181,285988,0.0-4.0-3.0-1.3,f078aa2862041786868ef9f2ad23336df49386eb98fe8259951830bdf7c3dbfd,5c70852d7826350001565ce4,"[192, 44, 251, 45, 1, 205, 243, 144, 177, 166, 66, 191, 122, 155, 255, 84, 201, 83, 119, 247, 98, 211, 78, 28, 36, 11, 103, 7, 181, 221, 141, 112]",5ef0634f4ba8c51f665b2209,5c70852d7826350001565ce4,5ef07ea42d63da59e8d52c0b,True,,,,,,,,,,,,,"<div style=""width:150px;height:56px;font-size:30px;text-align:center;"">correct!</div>",,,,,,,
,survey-multi-choice,182,295270,0.0-4.0-4.0,f078aa2862041786868ef9f2ad23336df49386eb98fe8259951830bdf7c3dbfd,5c70852d7826350001565ce4,"[192, 44, 251, 45, 1, 205, 243, 144, 177, 166, 66, 191, 122, 155, 255, 84, 201, 83, 119, 247, 98, 211, 78, 28, 36, 11, 103, 7, 181, 221, 141, 112]",5ef0634f4ba8c51f665b2209,5c70852d7826350001565ce4,5ef07ea42d63da59e8d52c0b,True,,,,,,,,,,,,9279.534999999683,,,,,,,"{""multichoice_discrimination"":""3. very confident that two letters were Q and X""}",[0]
,p5Text,183,297144,0.0-4.0-5.0,f078aa2862041786868ef9f2ad23336df49386eb98fe8259951830bdf7c3dbfd,5c70852d7826350001565ce4,"[192, 44, 251, 45, 1, 205, 243, 144, 177, 166, 66, 191, 122, 155, 255, 84, 201, 83, 119, 247, 98, 211, 78, 28, 36, 11, 103, 7, 181, 221, 141, 112]",5ef0634f4ba8c51f665b2209,5c70852d7826350001565ce4,5ef07ea42d63da59e8d52c0b,True,,,,,,,,,,,,,,,,,,,,
,disc,184,301053,0.0-4.0-6.0-0.0,f078aa2862041786868ef9f2ad23336df49386eb98fe8259951830bdf7c3dbfd,5c70852d7826350001565ce4,"[192, 44, 251, 45, 1, 205, 243, 144, 177, 166, 66, 191, 122, 155, 255, 84, 201, 83, 119, 247, 98, 211, 78, 28, 36, 11, 103, 7, 181, 221, 141, 112]",5ef0634f4ba8c51f665b2209,5c70852d7826350001565ce4,5ef07ea42d63da59e8d52c0b,True,,,1350.8700000002282,q,,,,q,disc,,1.0,,,,1.0,50.0,1.0,1335.7699999996694,,
,disc,185,305047,0.0-4.0-6.0-0.1,f078aa2862041786868ef9f2ad23336df49386eb98fe8259951830bdf7c3dbfd,5c70852d7826350001565ce4,"[192, 44, 251, 45, 1, 205, 243, 144, 177, 166, 66, 191, 122, 155, 255, 84, 201, 83, 119, 247, 98, 211, 78, 28, 36, 11, 103, 7, 181, 221, 141, 112]",5ef0634f4ba8c51f665b2209,5c70852d7826350001565ce4,5ef07ea42d63da59e8d52c0b,True,,,887.1899999994785,q,,,,w,disc,,0.0,,,,2.0,45.0,0.24704026886822003,1900.4150000000373,,
,disc,186,308204,0.0-4.0-6.0-0.2,f078aa2862041786868ef9f2ad23336df49386eb98fe8259951830bdf7c3dbfd,5c70852d7826350001565ce4,"[192, 44, 251, 45, 1, 205, 243, 144, 177, 166, 66, 191, 122, 155, 255, 84, 201, 83, 119, 247, 98, 211, 78, 28, 36, 11, 103, 7, 181, 221, 141, 112]",5ef0634f4ba8c51f665b2209,5c70852d7826350001565ce4,5ef07ea42d63da59e8d52c0b,True,,,858.0000000001746,q,,,,w,disc,,0.0,,,,2.0,50.0,0.184805294661014,1080.875000000582,,
,disc,187,311155,0.0-4.0-6.0-0.3,f078aa2862041786868ef9f2ad23336df49386eb98fe8259951830bdf7c3dbfd,5c70852d7826350001565ce4,"[192, 44, 251, 45, 1, 205, 243, 144, 177, 166, 66, 191, 122, 155, 255, 84, 201, 83, 119, 247, 98, 211, 78, 28, 36, 11, 103, 7, 181, 221, 141, 112]",5ef0634f4ba8c51f665b2209,5c70852d7826350001565ce4,5ef07ea42d63da59e8d52c0b,True,,,845.1049999993993,q,,,,q,disc,,1.0,,,,1.0,55.55555555555556,0.293419557682284,887.0750000005355,,
,disc,188,313969,0.0-4.0-6.0-0.4,f078aa2862041786868ef9f2ad23336df49386eb98fe8259951830bdf7c3dbfd,5c70852d7826350001565ce4,"[192, 44, 251, 45, 1, 205, 243, 144, 177, 166, 66, 191, 122, 155, 255, 84, 201, 83, 119, 247, 98, 211, 78, 28, 36, 11, 103, 7, 181, 221, 141, 112]",5ef0634f4ba8c51f665b2209,5c70852d7826350001565ce4,5ef07ea42d63da59e8d52c0b,True,,,812.540000000794,q,,,,q,disc,,1.0,,,,1.0,55.55555555555556,1.0,786.2599999998347,,
,disc,189,317217,0.0-4.0-6.0-0.5,f078aa2862041786868ef9f2ad23336df49386eb98fe8259951830bdf7c3dbfd,5c70852d7826350001565ce4,"[192, 44, 251, 45, 1, 205, 243, 144, 177, 166, 66, 191, 122, 155, 255, 84, 201, 83, 119, 247, 98, 211, 78, 28, 36, 11, 103, 7, 181, 221, 141, 112]",5ef0634f4ba8c51f665b2209,5c70852d7826350001565ce4,5ef07ea42d63da59e8d52c0b,True,,,767.2600000005914,q,,,,w,disc,,0.0,,,,2.0,50.0,0.5287888461059851,1251.3099999995902,,
