success,trial_type,trial_index,time_elapsed,internal_node_id,protocol_sum,subject_identifier,subject_sum,STUDY_ID,PROLIFIC_PID,SESSION_ID,bonus,nickname,rt,url,set_size,change,addition,RT,response,jitter,correct_response,test_part,correct,stimulus,key_press,responses
1.0,fullscreen,0,2840,0.0-0.0,f078aa2862041786868ef9f2ad23336df49386eb98fe8259951830bdf7c3dbfd,5e230311699ac45b327786dc,"[198, 243, 98, 34, 66, 23, 154, 49, 254, 162, 26, 196, 97, 152, 32, 143, 161, 182, 224, 206, 226, 30, 174, 242, 121, 5, 249, 70, 217, 69, 31, 49]",5f182f6ff0709b22657648f9,5e230311699ac45b327786dc,5f1837ab108d1012466a4785,0.25,idiot_number_3,,,,,,,,,,,,,,
,external-html,1,23536,0.0-1.0,f078aa2862041786868ef9f2ad23336df49386eb98fe8259951830bdf7c3dbfd,5e230311699ac45b327786dc,"[198, 243, 98, 34, 66, 23, 154, 49, 254, 162, 26, 196, 97, 152, 32, 143, 161, 182, 224, 206, 226, 30, 174, 242, 121, 5, 249, 70, 217, 69, 31, 49]",5f182f6ff0709b22657648f9,5e230311699ac45b327786dc,5f1837ab108d1012466a4785,0.25,idiot_number_3,20669.74000000005,nickname.html,,,,,,,,,,,,
,p5Text,2,27362,0.0-2.0,f078aa2862041786868ef9f2ad23336df49386eb98fe8259951830bdf7c3dbfd,5e230311699ac45b327786dc,"[198, 243, 98, 34, 66, 23, 154, 49, 254, 162, 26, 196, 97, 152, 32, 143, 161, 182, 224, 206, 226, 30, 174, 242, 121, 5, 249, 70, 217, 69, 31, 49]",5f182f6ff0709b22657648f9,5e230311699ac45b327786dc,5f1837ab108d1012466a4785,0.25,idiot_number_3,,,,,,,,,,,,,,
,p5Text,3,47477,0.0-3.0-0.0,f078aa2862041786868ef9f2ad23336df49386eb98fe8259951830bdf7c3dbfd,5e230311699ac45b327786dc,"[198, 243, 98, 34, 66, 23, 154, 49, 254, 162, 26, 196, 97, 152, 32, 143, 161, 182, 224, 206, 226, 30, 174, 242, 121, 5, 249, 70, 217, 69, 31, 49]",5f182f6ff0709b22657648f9,5e230311699ac45b327786dc,5f1837ab108d1012466a4785,0.25,idiot_number_3,,,,,,,,,,,,,,
,p5cd_ad,4,53367,0.0-3.0-1.0-0.0,f078aa2862041786868ef9f2ad23336df49386eb98fe8259951830bdf7c3dbfd,5e230311699ac45b327786dc,"[198, 243, 98, 34, 66, 23, 154, 49, 254, 162, 26, 196, 97, 152, 32, 143, 161, 182, 224, 206, 226, 30, 174, 242, 121, 5, 249, 70, 217, 69, 31, 49]",5f182f6ff0709b22657648f9,5e230311699ac45b327786dc,5f1837ab108d1012466a4785,0.25,idiot_number_3,,,3.0,1.0,0.0,4219.807095685384,f,159.00290431454778,j,practice,0.0,,,
,html-keyboard-response,5,54870,0.0-3.0-1.0-1.0,f078aa2862041786868ef9f2ad23336df49386eb98fe8259951830bdf7c3dbfd,5e230311699ac45b327786dc,"[198, 243, 98, 34, 66, 23, 154, 49, 254, 162, 26, 196, 97, 152, 32, 143, 161, 182, 224, 206, 226, 30, 174, 242, 121, 5, 249, 70, 217, 69, 31, 49]",5f182f6ff0709b22657648f9,5e230311699ac45b327786dc,5f1837ab108d1012466a4785,0.25,idiot_number_3,,,,,,,,,,,,"<div style=""width:150px;height:56px;border:0px;font-size:30px;text-align:center"">wrong.</div>",,
,p5cd_ad,6,58451,0.0-3.0-1.0-0.1,f078aa2862041786868ef9f2ad23336df49386eb98fe8259951830bdf7c3dbfd,5e230311699ac45b327786dc,"[198, 243, 98, 34, 66, 23, 154, 49, 254, 162, 26, 196, 97, 152, 32, 143, 161, 182, 224, 206, 226, 30, 174, 242, 121, 5, 249, 70, 217, 69, 31, 49]",5f182f6ff0709b22657648f9,5e230311699ac45b327786dc,5f1837ab108d1012466a4785,0.25,idiot_number_3,,,3.0,1.0,1.0,1684.0556411268553,f,391.0793588729575,j,practice,0.0,,,
,html-keyboard-response,7,59954,0.0-3.0-1.0-1.1,f078aa2862041786868ef9f2ad23336df49386eb98fe8259951830bdf7c3dbfd,5e230311699ac45b327786dc,"[198, 243, 98, 34, 66, 23, 154, 49, 254, 162, 26, 196, 97, 152, 32, 143, 161, 182, 224, 206, 226, 30, 174, 242, 121, 5, 249, 70, 217, 69, 31, 49]",5f182f6ff0709b22657648f9,5e230311699ac45b327786dc,5f1837ab108d1012466a4785,0.25,idiot_number_3,,,,,,,,,,,,"<div style=""width:150px;height:56px;border:0px;font-size:30px;text-align:center"">wrong.</div>",,
,p5cd_ad,8,63166,0.0-3.0-1.0-0.2,f078aa2862041786868ef9f2ad23336df49386eb98fe8259951830bdf7c3dbfd,5e230311699ac45b327786dc,"[198, 243, 98, 34, 66, 23, 154, 49, 254, 162, 26, 196, 97, 152, 32, 143, 161, 182, 224, 206, 226, 30, 174, 242, 121, 5, 249, 70, 217, 69, 31, 49]",5f182f6ff0709b22657648f9,5e230311699ac45b327786dc,5f1837ab108d1012466a4785,0.25,idiot_number_3,,,3.0,0.0,0.0,1691.3768026306643,f,4.088197369128466,f,practice,1.0,,,
,html-keyboard-response,9,64168,0.0-3.0-1.0-1.2,f078aa2862041786868ef9f2ad23336df49386eb98fe8259951830bdf7c3dbfd,5e230311699ac45b327786dc,"[198, 243, 98, 34, 66, 23, 154, 49, 254, 162, 26, 196, 97, 152, 32, 143, 161, 182, 224, 206, 226, 30, 174, 242, 121, 5, 249, 70, 217, 69, 31, 49]",5f182f6ff0709b22657648f9,5e230311699ac45b327786dc,5f1837ab108d1012466a4785,0.25,idiot_number_3,,,,,,,,,,,,"<div style=""width:150px;height:56px;font-size:30px;text-align:center;"">correct!</div>",,
,p5cd_ad,10,66351,0.0-3.0-1.0-0.3,f078aa2862041786868ef9f2ad23336df49386eb98fe8259951830bdf7c3dbfd,5e230311699ac45b327786dc,"[198, 243, 98, 34, 66, 23, 154, 49, 254, 162, 26, 196, 97, 152, 32, 143, 161, 182, 224, 206, 226, 30, 174, 242, 121, 5, 249, 70, 217, 69, 31, 49]",5f182f6ff0709b22657648f9,5e230311699ac45b327786dc,5f1837ab108d1012466a4785,0.25,idiot_number_3,,,3.0,0.0,1.0,564.5202359985487,f,100.27476400136948,f,practice,1.0,,,
,html-keyboard-response,11,67352,0.0-3.0-1.0-1.3,f078aa2862041786868ef9f2ad23336df49386eb98fe8259951830bdf7c3dbfd,5e230311699ac45b327786dc,"[198, 243, 98, 34, 66, 23, 154, 49, 254, 162, 26, 196, 97, 152, 32, 143, 161, 182, 224, 206, 226, 30, 174, 242, 121, 5, 249, 70, 217, 69, 31, 49]",5f182f6ff0709b22657648f9,5e230311699ac45b327786dc,5f1837ab108d1012466a4785,0.25,idiot_number_3,,,,,,,,,,,,"<div style=""width:150px;height:56px;font-size:30px;text-align:center;"">correct!</div>",,
,p5Text,12,71065,0.0-3.1-0.1,f078aa2862041786868ef9f2ad23336df49386eb98fe8259951830bdf7c3dbfd,5e230311699ac45b327786dc,"[198, 243, 98, 34, 66, 23, 154, 49, 254, 162, 26, 196, 97, 152, 32, 143, 161, 182, 224, 206, 226, 30, 174, 242, 121, 5, 249, 70, 217, 69, 31, 49]",5f182f6ff0709b22657648f9,5e230311699ac45b327786dc,5f1837ab108d1012466a4785,0.25,idiot_number_3,,,,,,,,,,,,,,
,p5cd_ad,13,73901,0.0-3.1-1.1-0.4,f078aa2862041786868ef9f2ad23336df49386eb98fe8259951830bdf7c3dbfd,5e230311699ac45b327786dc,"[198, 243, 98, 34, 66, 23, 154, 49, 254, 162, 26, 196, 97, 152, 32, 143, 161, 182, 224, 206, 226, 30, 174, 242, 121, 5, 249, 70, 217, 69, 31, 49]",5f182f6ff0709b22657648f9,5e230311699ac45b327786dc,5f1837ab108d1012466a4785,0.25,idiot_number_3,,,3.0,0.0,1.0,962.7418391501124,f,357.3981608496979,f,practice,1.0,,,
,html-keyboard-response,14,74903,0.0-3.1-1.1-1.4,f078aa2862041786868ef9f2ad23336df49386eb98fe8259951830bdf7c3dbfd,5e230311699ac45b327786dc,"[198, 243, 98, 34, 66, 23, 154, 49, 254, 162, 26, 196, 97, 152, 32, 143, 161, 182, 224, 206, 226, 30, 174, 242, 121, 5, 249, 70, 217, 69, 31, 49]",5f182f6ff0709b22657648f9,5e230311699ac45b327786dc,5f1837ab108d1012466a4785,0.25,idiot_number_3,,,,,,,,,,,,"<div style=""width:150px;height:56px;font-size:30px;text-align:center;"">correct!</div>",,
,p5cd_ad,15,77300,0.0-3.1-1.1-0.5,f078aa2862041786868ef9f2ad23336df49386eb98fe8259951830bdf7c3dbfd,5e230311699ac45b327786dc,"[198, 243, 98, 34, 66, 23, 154, 49, 254, 162, 26, 196, 97, 152, 32, 143, 161, 182, 224, 206, 226, 30, 174, 242, 121, 5, 249, 70, 217, 69, 31, 49]",5f182f6ff0709b22657648f9,5e230311699ac45b327786dc,5f1837ab108d1012466a4785,0.25,idiot_number_3,,,3.0,1.0,0.0,725.776890578345,j,156.9981094216928,j,practice,1.0,,,
,html-keyboard-response,16,78302,0.0-3.1-1.1-1.5,f078aa2862041786868ef9f2ad23336df49386eb98fe8259951830bdf7c3dbfd,5e230311699ac45b327786dc,"[198, 243, 98, 34, 66, 23, 154, 49, 254, 162, 26, 196, 97, 152, 32, 143, 161, 182, 224, 206, 226, 30, 174, 242, 121, 5, 249, 70, 217, 69, 31, 49]",5f182f6ff0709b22657648f9,5e230311699ac45b327786dc,5f1837ab108d1012466a4785,0.25,idiot_number_3,,,,,,,,,,,,"<div style=""width:150px;height:56px;font-size:30px;text-align:center;"">correct!</div>",,
,p5cd_ad,17,80567,0.0-3.1-1.1-0.6,f078aa2862041786868ef9f2ad23336df49386eb98fe8259951830bdf7c3dbfd,5e230311699ac45b327786dc,"[198, 243, 98, 34, 66, 23, 154, 49, 254, 162, 26, 196, 97, 152, 32, 143, 161, 182, 224, 206, 226, 30, 174, 242, 121, 5, 249, 70, 217, 69, 31, 49]",5f182f6ff0709b22657648f9,5e230311699ac45b327786dc,5f1837ab108d1012466a4785,0.25,idiot_number_3,,,3.0,1.0,1.0,728.2710847714479,j,27.103915228508413,j,practice,1.0,,,
,html-keyboard-response,18,81569,0.0-3.1-1.1-1.6,f078aa2862041786868ef9f2ad23336df49386eb98fe8259951830bdf7c3dbfd,5e230311699ac45b327786dc,"[198, 243, 98, 34, 66, 23, 154, 49, 254, 162, 26, 196, 97, 152, 32, 143, 161, 182, 224, 206, 226, 30, 174, 242, 121, 5, 249, 70, 217, 69, 31, 49]",5f182f6ff0709b22657648f9,5e230311699ac45b327786dc,5f1837ab108d1012466a4785,0.25,idiot_number_3,,,,,,,,,,,,"<div style=""width:150px;height:56px;font-size:30px;text-align:center;"">correct!</div>",,
,p5cd_ad,19,84134,0.0-3.1-1.1-0.7,f078aa2862041786868ef9f2ad23336df49386eb98fe8259951830bdf7c3dbfd,5e230311699ac45b327786dc,"[198, 243, 98, 34, 66, 23, 154, 49, 254, 162, 26, 196, 97, 152, 32, 143, 161, 182, 224, 206, 226, 30, 174, 242, 121, 5, 249, 70, 217, 69, 31, 49]",5f182f6ff0709b22657648f9,5e230311699ac45b327786dc,5f1837ab108d1012466a4785,0.25,idiot_number_3,,,3.0,0.0,0.0,711.3640978025214,f,337.540902197361,f,practice,1.0,,,
,html-keyboard-response,20,85137,0.0-3.1-1.1-1.7,f078aa2862041786868ef9f2ad23336df49386eb98fe8259951830bdf7c3dbfd,5e230311699ac45b327786dc,"[198, 243, 98, 34, 66, 23, 154, 49, 254, 162, 26, 196, 97, 152, 32, 143, 161, 182, 224, 206, 226, 30, 174, 242, 121, 5, 249, 70, 217, 69, 31, 49]",5f182f6ff0709b22657648f9,5e230311699ac45b327786dc,5f1837ab108d1012466a4785,0.25,idiot_number_3,,,,,,,,,,,,"<div style=""width:150px;height:56px;font-size:30px;text-align:center;"">correct!</div>",,
,p5Text,21,93007,0.0-4.0,f078aa2862041786868ef9f2ad23336df49386eb98fe8259951830bdf7c3dbfd,5e230311699ac45b327786dc,"[198, 243, 98, 34, 66, 23, 154, 49, 254, 162, 26, 196, 97, 152, 32, 143, 161, 182, 224, 206, 226, 30, 174, 242, 121, 5, 249, 70, 217, 69, 31, 49]",5f182f6ff0709b22657648f9,5e230311699ac45b327786dc,5f1837ab108d1012466a4785,0.25,idiot_number_3,,,,,,,,,,,,,,
,p5Text,22,102458,0.0-5.0,f078aa2862041786868ef9f2ad23336df49386eb98fe8259951830bdf7c3dbfd,5e230311699ac45b327786dc,"[198, 243, 98, 34, 66, 23, 154, 49, 254, 162, 26, 196, 97, 152, 32, 143, 161, 182, 224, 206, 226, 30, 174, 242, 121, 5, 249, 70, 217, 69, 31, 49]",5f182f6ff0709b22657648f9,5e230311699ac45b327786dc,5f1837ab108d1012466a4785,0.25,idiot_number_3,,,,,,,,,,,,,,
,p5Text,23,108521,0.0-6.0-0.0,f078aa2862041786868ef9f2ad23336df49386eb98fe8259951830bdf7c3dbfd,5e230311699ac45b327786dc,"[198, 243, 98, 34, 66, 23, 154, 49, 254, 162, 26, 196, 97, 152, 32, 143, 161, 182, 224, 206, 226, 30, 174, 242, 121, 5, 249, 70, 217, 69, 31, 49]",5f182f6ff0709b22657648f9,5e230311699ac45b327786dc,5f1837ab108d1012466a4785,0.25,idiot_number_3,,,,,,,,,,,,,,
,p5cd_ad,24,110633,0.0-6.0-1.0-0.0,f078aa2862041786868ef9f2ad23336df49386eb98fe8259951830bdf7c3dbfd,5e230311699ac45b327786dc,"[198, 243, 98, 34, 66, 23, 154, 49, 254, 162, 26, 196, 97, 152, 32, 143, 161, 182, 224, 206, 226, 30, 174, 242, 121, 5, 249, 70, 217, 69, 31, 49]",5f182f6ff0709b22657648f9,5e230311699ac45b327786dc,5f1837ab108d1012466a4785,0.25,idiot_number_3,,,3.0,0.0,1.0,558.3135631396581,f,397.08643686026335,f,test,1.0,,,
,p5cd_ad,25,112917,0.0-6.0-1.0-0.1,f078aa2862041786868ef9f2ad23336df49386eb98fe8259951830bdf7c3dbfd,5e230311699ac45b327786dc,"[198, 243, 98, 34, 66, 23, 154, 49, 254, 162, 26, 196, 97, 152, 32, 143, 161, 182, 224, 206, 226, 30, 174, 242, 121, 5, 249, 70, 217, 69, 31, 49]",5f182f6ff0709b22657648f9,5e230311699ac45b327786dc,5f1837ab108d1012466a4785,0.25,idiot_number_3,,,5.0,1.0,0.0,1125.3223082290788,f,0.9526917710900301,j,test,0.0,,,
,p5cd_ad,26,114916,0.0-6.0-1.0-0.2,f078aa2862041786868ef9f2ad23336df49386eb98fe8259951830bdf7c3dbfd,5e230311699ac45b327786dc,"[198, 243, 98, 34, 66, 23, 154, 49, 254, 162, 26, 196, 97, 152, 32, 143, 161, 182, 224, 206, 226, 30, 174, 242, 121, 5, 249, 70, 217, 69, 31, 49]",5f182f6ff0709b22657648f9,5e230311699ac45b327786dc,5f1837ab108d1012466a4785,0.25,idiot_number_3,,,5.0,1.0,1.0,713.1575751885539,f,122.11242481134832,j,test,0.0,,,
,p5cd_ad,27,117699,0.0-6.0-1.0-0.3,f078aa2862041786868ef9f2ad23336df49386eb98fe8259951830bdf7c3dbfd,5e230311699ac45b327786dc,"[198, 243, 98, 34, 66, 23, 154, 49, 254, 162, 26, 196, 97, 152, 32, 143, 161, 182, 224, 206, 226, 30, 174, 242, 121, 5, 249, 70, 217, 69, 31, 49]",5f182f6ff0709b22657648f9,5e230311699ac45b327786dc,5f1837ab108d1012466a4785,0.25,idiot_number_3,,,9.0,1.0,1.0,1328.1017293430486,j,291.00327065680176,j,test,1.0,,,
,p5cd_ad,28,120433,0.0-6.0-1.0-0.4,f078aa2862041786868ef9f2ad23336df49386eb98fe8259951830bdf7c3dbfd,5e230311699ac45b327786dc,"[198, 243, 98, 34, 66, 23, 154, 49, 254, 162, 26, 196, 97, 152, 32, 143, 161, 182, 224, 206, 226, 30, 174, 242, 121, 5, 249, 70, 217, 69, 31, 49]",5f182f6ff0709b22657648f9,5e230311699ac45b327786dc,5f1837ab108d1012466a4785,0.25,idiot_number_3,,,3.0,1.0,1.0,1105.64316178429,f,466.24683821573853,j,test,0.0,,,
,p5cd_ad,29,123216,0.0-6.0-1.0-0.5,f078aa2862041786868ef9f2ad23336df49386eb98fe8259951830bdf7c3dbfd,5e230311699ac45b327786dc,"[198, 243, 98, 34, 66, 23, 154, 49, 254, 162, 26, 196, 97, 152, 32, 143, 161, 182, 224, 206, 226, 30, 174, 242, 121, 5, 249, 70, 217, 69, 31, 49]",5f182f6ff0709b22657648f9,5e230311699ac45b327786dc,5f1837ab108d1012466a4785,0.25,idiot_number_3,,,9.0,0.0,1.0,1239.5342451366887,f,383.0307548632845,f,test,1.0,,,
,p5cd_ad,30,125449,0.0-6.0-1.0-0.6,f078aa2862041786868ef9f2ad23336df49386eb98fe8259951830bdf7c3dbfd,5e230311699ac45b327786dc,"[198, 243, 98, 34, 66, 23, 154, 49, 254, 162, 26, 196, 97, 152, 32, 143, 161, 182, 224, 206, 226, 30, 174, 242, 121, 5, 249, 70, 217, 69, 31, 49]",5f182f6ff0709b22657648f9,5e230311699ac45b327786dc,5f1837ab108d1012466a4785,0.25,idiot_number_3,,,1.0,1.0,0.0,804.333878138641,j,275.65112186130136,j,test,1.0,,,
,p5cd_ad,31,127917,0.0-6.0-1.0-0.7,f078aa2862041786868ef9f2ad23336df49386eb98fe8259951830bdf7c3dbfd,5e230311699ac45b327786dc,"[198, 243, 98, 34, 66, 23, 154, 49, 254, 162, 26, 196, 97, 152, 32, 143, 161, 182, 224, 206, 226, 30, 174, 242, 121, 5, 249, 70, 217, 69, 31, 49]",5f182f6ff0709b22657648f9,5e230311699ac45b327786dc,5f1837ab108d1012466a4785,0.25,idiot_number_3,,,9.0,1.0,0.0,1180.4206543416512,f,122.4193456582725,j,test,0.0,,,
,p5cd_ad,32,130016,0.0-6.0-1.0-0.8,f078aa2862041786868ef9f2ad23336df49386eb98fe8259951830bdf7c3dbfd,5e230311699ac45b327786dc,"[198, 243, 98, 34, 66, 23, 154, 49, 254, 162, 26, 196, 97, 152, 32, 143, 161, 182, 224, 206, 226, 30, 174, 242, 121, 5, 249, 70, 217, 69, 31, 49]",5f182f6ff0709b22657648f9,5e230311699ac45b327786dc,5f1837ab108d1012466a4785,0.25,idiot_number_3,,,1.0,0.0,1.0,669.1558974790387,j,262.40910252090544,f,test,0.0,,,
,p5cd_ad,33,132766,0.0-6.0-1.0-0.9,f078aa2862041786868ef9f2ad23336df49386eb98fe8259951830bdf7c3dbfd,5e230311699ac45b327786dc,"[198, 243, 98, 34, 66, 23, 154, 49, 254, 162, 26, 196, 97, 152, 32, 143, 161, 182, 224, 206, 226, 30, 174, 242, 121, 5, 249, 70, 217, 69, 31, 49]",5f182f6ff0709b22657648f9,5e230311699ac45b327786dc,5f1837ab108d1012466a4785,0.25,idiot_number_3,,,3.0,0.0,0.0,1518.2605604280543,f,64.91443957202137,f,test,1.0,,,
,p5cd_ad,34,135749,0.0-6.0-1.0-0.10,f078aa2862041786868ef9f2ad23336df49386eb98fe8259951830bdf7c3dbfd,5e230311699ac45b327786dc,"[198, 243, 98, 34, 66, 23, 154, 49, 254, 162, 26, 196, 97, 152, 32, 143, 161, 182, 224, 206, 226, 30, 174, 242, 121, 5, 249, 70, 217, 69, 31, 49]",5f182f6ff0709b22657648f9,5e230311699ac45b327786dc,5f1837ab108d1012466a4785,0.25,idiot_number_3,,,9.0,0.0,0.0,1356.4180202666612,f,469.19197973329574,f,test,1.0,,,
,p5cd_ad,35,137882,0.0-6.0-1.0-0.11,f078aa2862041786868ef9f2ad23336df49386eb98fe8259951830bdf7c3dbfd,5e230311699ac45b327786dc,"[198, 243, 98, 34, 66, 23, 154, 49, 254, 162, 26, 196, 97, 152, 32, 143, 161, 182, 224, 206, 226, 30, 174, 242, 121, 5, 249, 70, 217, 69, 31, 49]",5f182f6ff0709b22657648f9,5e230311699ac45b327786dc,5f1837ab108d1012466a4785,0.25,idiot_number_3,,,1.0,1.0,1.0,643.8068033411109,j,333.6181966587901,j,test,1.0,,,
,p5cd_ad,36,140383,0.0-6.0-1.0-0.12,f078aa2862041786868ef9f2ad23336df49386eb98fe8259951830bdf7c3dbfd,5e230311699ac45b327786dc,"[198, 243, 98, 34, 66, 23, 154, 49, 254, 162, 26, 196, 97, 152, 32, 143, 161, 182, 224, 206, 226, 30, 174, 242, 121, 5, 249, 70, 217, 69, 31, 49]",5f182f6ff0709b22657648f9,5e230311699ac45b327786dc,5f1837ab108d1012466a4785,0.25,idiot_number_3,,,3.0,1.0,0.0,952.2371853730583,j,388.93781462684274,j,test,1.0,,,
,p5cd_ad,37,142533,0.0-6.0-1.0-0.13,f078aa2862041786868ef9f2ad23336df49386eb98fe8259951830bdf7c3dbfd,5e230311699ac45b327786dc,"[198, 243, 98, 34, 66, 23, 154, 49, 254, 162, 26, 196, 97, 152, 32, 143, 161, 182, 224, 206, 226, 30, 174, 242, 121, 5, 249, 70, 217, 69, 31, 49]",5f182f6ff0709b22657648f9,5e230311699ac45b327786dc,5f1837ab108d1012466a4785,0.25,idiot_number_3,,,1.0,0.0,0.0,945.178220001806,f,47.35177999828011,f,test,1.0,,,
,p5cd_ad,38,145365,0.0-6.0-1.0-0.14,f078aa2862041786868ef9f2ad23336df49386eb98fe8259951830bdf7c3dbfd,5e230311699ac45b327786dc,"[198, 243, 98, 34, 66, 23, 154, 49, 254, 162, 26, 196, 97, 152, 32, 143, 161, 182, 224, 206, 226, 30, 174, 242, 121, 5, 249, 70, 217, 69, 31, 49]",5f182f6ff0709b22657648f9,5e230311699ac45b327786dc,5f1837ab108d1012466a4785,0.25,idiot_number_3,,,5.0,0.0,1.0,1206.2324331239797,f,460.83756687585264,f,test,1.0,,,
,p5cd_ad,39,147982,0.0-6.0-1.0-0.15,f078aa2862041786868ef9f2ad23336df49386eb98fe8259951830bdf7c3dbfd,5e230311699ac45b327786dc,"[198, 243, 98, 34, 66, 23, 154, 49, 254, 162, 26, 196, 97, 152, 32, 143, 161, 182, 224, 206, 226, 30, 174, 242, 121, 5, 249, 70, 217, 69, 31, 49]",5f182f6ff0709b22657648f9,5e230311699ac45b327786dc,5f1837ab108d1012466a4785,0.25,idiot_number_3,,,5.0,0.0,0.0,1035.7380916828697,f,414.2069083172828,f,test,1.0,,,
,p5Text,40,156991,0.0-6.0-2.0,f078aa2862041786868ef9f2ad23336df49386eb98fe8259951830bdf7c3dbfd,5e230311699ac45b327786dc,"[198, 243, 98, 34, 66, 23, 154, 49, 254, 162, 26, 196, 97, 152, 32, 143, 161, 182, 224, 206, 226, 30, 174, 242, 121, 5, 249, 70, 217, 69, 31, 49]",5f182f6ff0709b22657648f9,5e230311699ac45b327786dc,5f1837ab108d1012466a4785,0.25,idiot_number_3,,,,,,,,,,,,,,
,p5Text,41,158356,0.0-6.0-0.1,f078aa2862041786868ef9f2ad23336df49386eb98fe8259951830bdf7c3dbfd,5e230311699ac45b327786dc,"[198, 243, 98, 34, 66, 23, 154, 49, 254, 162, 26, 196, 97, 152, 32, 143, 161, 182, 224, 206, 226, 30, 174, 242, 121, 5, 249, 70, 217, 69, 31, 49]",5f182f6ff0709b22657648f9,5e230311699ac45b327786dc,5f1837ab108d1012466a4785,0.25,idiot_number_3,,,,,,,,,,,,,,
,p5cd_ad,42,160316,0.0-6.0-1.1-0.16,f078aa2862041786868ef9f2ad23336df49386eb98fe8259951830bdf7c3dbfd,5e230311699ac45b327786dc,"[198, 243, 98, 34, 66, 23, 154, 49, 254, 162, 26, 196, 97, 152, 32, 143, 161, 182, 224, 206, 226, 30, 174, 242, 121, 5, 249, 70, 217, 69, 31, 49]",5f182f6ff0709b22657648f9,5e230311699ac45b327786dc,5f1837ab108d1012466a4785,0.25,idiot_number_3,,,9.0,0.0,1.0,658.0105831606779,f,145.3744168393314,f,test,1.0,,,
,p5cd_ad,43,162400,0.0-6.0-1.1-0.17,f078aa2862041786868ef9f2ad23336df49386eb98fe8259951830bdf7c3dbfd,5e230311699ac45b327786dc,"[198, 243, 98, 34, 66, 23, 154, 49, 254, 162, 26, 196, 97, 152, 32, 143, 161, 182, 224, 206, 226, 30, 174, 242, 121, 5, 249, 70, 217, 69, 31, 49]",5f182f6ff0709b22657648f9,5e230311699ac45b327786dc,5f1837ab108d1012466a4785,0.25,idiot_number_3,,,5.0,1.0,1.0,807.4371070411871,f,108.58789295889437,j,test,0.0,,,
,p5cd_ad,44,164566,0.0-6.0-1.1-0.18,f078aa2862041786868ef9f2ad23336df49386eb98fe8259951830bdf7c3dbfd,5e230311699ac45b327786dc,"[198, 243, 98, 34, 66, 23, 154, 49, 254, 162, 26, 196, 97, 152, 32, 143, 161, 182, 224, 206, 226, 30, 174, 242, 121, 5, 249, 70, 217, 69, 31, 49]",5f182f6ff0709b22657648f9,5e230311699ac45b327786dc,5f1837ab108d1012466a4785,0.25,idiot_number_3,,,3.0,0.0,1.0,905.3663662371982,f,101.86863376293331,f,test,1.0,,,
,p5cd_ad,45,166616,0.0-6.0-1.1-0.19,f078aa2862041786868ef9f2ad23336df49386eb98fe8259951830bdf7c3dbfd,5e230311699ac45b327786dc,"[198, 243, 98, 34, 66, 23, 154, 49, 254, 162, 26, 196, 97, 152, 32, 143, 161, 182, 224, 206, 226, 30, 174, 242, 121, 5, 249, 70, 217, 69, 31, 49]",5f182f6ff0709b22657648f9,5e230311699ac45b327786dc,5f1837ab108d1012466a4785,0.25,idiot_number_3,,,5.0,1.0,0.0,821.7539290870773,j,60.59107091277838,j,test,1.0,,,
,p5cd_ad,46,168532,0.0-6.0-1.1-0.20,f078aa2862041786868ef9f2ad23336df49386eb98fe8259951830bdf7c3dbfd,5e230311699ac45b327786dc,"[198, 243, 98, 34, 66, 23, 154, 49, 254, 162, 26, 196, 97, 152, 32, 143, 161, 182, 224, 206, 226, 30, 174, 242, 121, 5, 249, 70, 217, 69, 31, 49]",5f182f6ff0709b22657648f9,5e230311699ac45b327786dc,5f1837ab108d1012466a4785,0.25,idiot_number_3,,,5.0,0.0,0.0,749.8929619624687,f,2.167038037441671,f,test,1.0,,,
,p5cd_ad,47,170700,0.0-6.0-1.1-0.21,f078aa2862041786868ef9f2ad23336df49386eb98fe8259951830bdf7c3dbfd,5e230311699ac45b327786dc,"[198, 243, 98, 34, 66, 23, 154, 49, 254, 162, 26, 196, 97, 152, 32, 143, 161, 182, 224, 206, 226, 30, 174, 242, 121, 5, 249, 70, 217, 69, 31, 49]",5f182f6ff0709b22657648f9,5e230311699ac45b327786dc,5f1837ab108d1012466a4785,0.25,idiot_number_3,,,9.0,1.0,1.0,787.1843348683324,j,223.43566513154656,j,test,1.0,,,
,p5cd_ad,48,172649,0.0-6.0-1.1-0.22,f078aa2862041786868ef9f2ad23336df49386eb98fe8259951830bdf7c3dbfd,5e230311699ac45b327786dc,"[198, 243, 98, 34, 66, 23, 154, 49, 254, 162, 26, 196, 97, 152, 32, 143, 161, 182, 224, 206, 226, 30, 174, 242, 121, 5, 249, 70, 217, 69, 31, 49]",5f182f6ff0709b22657648f9,5e230311699ac45b327786dc,5f1837ab108d1012466a4785,0.25,idiot_number_3,,,5.0,0.0,1.0,751.3881658354367,f,43.9468341646716,f,test,1.0,,,
,p5cd_ad,49,174449,0.0-6.0-1.1-0.23,f078aa2862041786868ef9f2ad23336df49386eb98fe8259951830bdf7c3dbfd,5e230311699ac45b327786dc,"[198, 243, 98, 34, 66, 23, 154, 49, 254, 162, 26, 196, 97, 152, 32, 143, 161, 182, 224, 206, 226, 30, 174, 242, 121, 5, 249, 70, 217, 69, 31, 49]",5f182f6ff0709b22657648f9,5e230311699ac45b327786dc,5f1837ab108d1012466a4785,0.25,idiot_number_3,,,1.0,1.0,1.0,521.2041354376415,j,124.84086456242949,j,test,1.0,,,
,p5cd_ad,50,176366,0.0-6.0-1.1-0.24,f078aa2862041786868ef9f2ad23336df49386eb98fe8259951830bdf7c3dbfd,5e230311699ac45b327786dc,"[198, 243, 98, 34, 66, 23, 154, 49, 254, 162, 26, 196, 97, 152, 32, 143, 161, 182, 224, 206, 226, 30, 174, 242, 121, 5, 249, 70, 217, 69, 31, 49]",5f182f6ff0709b22657648f9,5e230311699ac45b327786dc,5f1837ab108d1012466a4785,0.25,idiot_number_3,,,1.0,1.0,0.0,625.3001280377503,j,132.81487196218222,j,test,1.0,,,
,p5cd_ad,51,178466,0.0-6.0-1.1-0.25,f078aa2862041786868ef9f2ad23336df49386eb98fe8259951830bdf7c3dbfd,5e230311699ac45b327786dc,"[198, 243, 98, 34, 66, 23, 154, 49, 254, 162, 26, 196, 97, 152, 32, 143, 161, 182, 224, 206, 226, 30, 174, 242, 121, 5, 249, 70, 217, 69, 31, 49]",5f182f6ff0709b22657648f9,5e230311699ac45b327786dc,5f1837ab108d1012466a4785,0.25,idiot_number_3,,,9.0,0.0,0.0,723.5060685669305,f,213.12393143307418,f,test,1.0,,,
,p5cd_ad,52,180398,0.0-6.0-1.1-0.26,f078aa2862041786868ef9f2ad23336df49386eb98fe8259951830bdf7c3dbfd,5e230311699ac45b327786dc,"[198, 243, 98, 34, 66, 23, 154, 49, 254, 162, 26, 196, 97, 152, 32, 143, 161, 182, 224, 206, 226, 30, 174, 242, 121, 5, 249, 70, 217, 69, 31, 49]",5f182f6ff0709b22657648f9,5e230311699ac45b327786dc,5f1837ab108d1012466a4785,0.25,idiot_number_3,,,3.0,1.0,0.0,747.7919237524911,j,17.9330762475729,j,test,1.0,,,
,p5cd_ad,53,182632,0.0-6.0-1.1-0.27,f078aa2862041786868ef9f2ad23336df49386eb98fe8259951830bdf7c3dbfd,5e230311699ac45b327786dc,"[198, 243, 98, 34, 66, 23, 154, 49, 254, 162, 26, 196, 97, 152, 32, 143, 161, 182, 224, 206, 226, 30, 174, 242, 121, 5, 249, 70, 217, 69, 31, 49]",5f182f6ff0709b22657648f9,5e230311699ac45b327786dc,5f1837ab108d1012466a4785,0.25,idiot_number_3,,,3.0,1.0,1.0,993.3489337616775,j,86.93106623832136,j,test,1.0,,,
,p5cd_ad,54,184932,0.0-6.0-1.1-0.28,f078aa2862041786868ef9f2ad23336df49386eb98fe8259951830bdf7c3dbfd,5e230311699ac45b327786dc,"[198, 243, 98, 34, 66, 23, 154, 49, 254, 162, 26, 196, 97, 152, 32, 143, 161, 182, 224, 206, 226, 30, 174, 242, 121, 5, 249, 70, 217, 69, 31, 49]",5f182f6ff0709b22657648f9,5e230311699ac45b327786dc,5f1837ab108d1012466a4785,0.25,idiot_number_3,,,3.0,0.0,0.0,991.4314369687927,f,151.8535630311817,f,test,1.0,,,
,p5cd_ad,55,187332,0.0-6.0-1.1-0.29,f078aa2862041786868ef9f2ad23336df49386eb98fe8259951830bdf7c3dbfd,5e230311699ac45b327786dc,"[198, 243, 98, 34, 66, 23, 154, 49, 254, 162, 26, 196, 97, 152, 32, 143, 161, 182, 224, 206, 226, 30, 174, 242, 121, 5, 249, 70, 217, 69, 31, 49]",5f182f6ff0709b22657648f9,5e230311699ac45b327786dc,5f1837ab108d1012466a4785,0.25,idiot_number_3,,,1.0,0.0,0.0,846.7525484855578,f,395.6474515143782,f,test,1.0,,,
,p5cd_ad,56,189516,0.0-6.0-1.1-0.30,f078aa2862041786868ef9f2ad23336df49386eb98fe8259951830bdf7c3dbfd,5e230311699ac45b327786dc,"[198, 243, 98, 34, 66, 23, 154, 49, 254, 162, 26, 196, 97, 152, 32, 143, 161, 182, 224, 206, 226, 30, 174, 242, 121, 5, 249, 70, 217, 69, 31, 49]",5f182f6ff0709b22657648f9,5e230311699ac45b327786dc,5f1837ab108d1012466a4785,0.25,idiot_number_3,,,9.0,1.0,0.0,918.0213076579967,f,108.33869234193116,j,test,0.0,,,
,p5cd_ad,57,191349,0.0-6.0-1.1-0.31,f078aa2862041786868ef9f2ad23336df49386eb98fe8259951830bdf7c3dbfd,5e230311699ac45b327786dc,"[198, 243, 98, 34, 66, 23, 154, 49, 254, 162, 26, 196, 97, 152, 32, 143, 161, 182, 224, 206, 226, 30, 174, 242, 121, 5, 249, 70, 217, 69, 31, 49]",5f182f6ff0709b22657648f9,5e230311699ac45b327786dc,5f1837ab108d1012466a4785,0.25,idiot_number_3,,,1.0,0.0,1.0,558.4943765578209,f,116.7956234421581,f,test,1.0,,,
,p5Text,58,200079,0.0-6.0-2.1,f078aa2862041786868ef9f2ad23336df49386eb98fe8259951830bdf7c3dbfd,5e230311699ac45b327786dc,"[198, 243, 98, 34, 66, 23, 154, 49, 254, 162, 26, 196, 97, 152, 32, 143, 161, 182, 224, 206, 226, 30, 174, 242, 121, 5, 249, 70, 217, 69, 31, 49]",5f182f6ff0709b22657648f9,5e230311699ac45b327786dc,5f1837ab108d1012466a4785,0.25,idiot_number_3,,,,,,,,,,,,,,
,p5Text,59,201647,0.0-6.0-0.2,f078aa2862041786868ef9f2ad23336df49386eb98fe8259951830bdf7c3dbfd,5e230311699ac45b327786dc,"[198, 243, 98, 34, 66, 23, 154, 49, 254, 162, 26, 196, 97, 152, 32, 143, 161, 182, 224, 206, 226, 30, 174, 242, 121, 5, 249, 70, 217, 69, 31, 49]",5f182f6ff0709b22657648f9,5e230311699ac45b327786dc,5f1837ab108d1012466a4785,0.25,idiot_number_3,,,,,,,,,,,,,,
,p5cd_ad,60,203565,0.0-6.0-1.2-0.32,f078aa2862041786868ef9f2ad23336df49386eb98fe8259951830bdf7c3dbfd,5e230311699ac45b327786dc,"[198, 243, 98, 34, 66, 23, 154, 49, 254, 162, 26, 196, 97, 152, 32, 143, 161, 182, 224, 206, 226, 30, 174, 242, 121, 5, 249, 70, 217, 69, 31, 49]",5f182f6ff0709b22657648f9,5e230311699ac45b327786dc,5f1837ab108d1012466a4785,0.25,idiot_number_3,,,5.0,0.0,0.0,645.2990786566224,f,106.50592134334147,f,test,1.0,,,
,p5cd_ad,61,205449,0.0-6.0-1.2-0.33,f078aa2862041786868ef9f2ad23336df49386eb98fe8259951830bdf7c3dbfd,5e230311699ac45b327786dc,"[198, 243, 98, 34, 66, 23, 154, 49, 254, 162, 26, 196, 97, 152, 32, 143, 161, 182, 224, 206, 226, 30, 174, 242, 121, 5, 249, 70, 217, 69, 31, 49]",5f182f6ff0709b22657648f9,5e230311699ac45b327786dc,5f1837ab108d1012466a4785,0.25,idiot_number_3,,,1.0,1.0,1.0,482.6530793305719,j,238.54192066937685,j,test,1.0,,,
,p5cd_ad,62,207614,0.0-6.0-1.2-0.34,f078aa2862041786868ef9f2ad23336df49386eb98fe8259951830bdf7c3dbfd,5e230311699ac45b327786dc,"[198, 243, 98, 34, 66, 23, 154, 49, 254, 162, 26, 196, 97, 152, 32, 143, 161, 182, 224, 206, 226, 30, 174, 242, 121, 5, 249, 70, 217, 69, 31, 49]",5f182f6ff0709b22657648f9,5e230311699ac45b327786dc,5f1837ab108d1012466a4785,0.25,idiot_number_3,,,1.0,0.0,0.0,622.879863366572,j,358.57513663358986,f,test,0.0,,,
,p5cd_ad,63,209514,0.0-6.0-1.2-0.35,f078aa2862041786868ef9f2ad23336df49386eb98fe8259951830bdf7c3dbfd,5e230311699ac45b327786dc,"[198, 243, 98, 34, 66, 23, 154, 49, 254, 162, 26, 196, 97, 152, 32, 143, 161, 182, 224, 206, 226, 30, 174, 242, 121, 5, 249, 70, 217, 69, 31, 49]",5f182f6ff0709b22657648f9,5e230311699ac45b327786dc,5f1837ab108d1012466a4785,0.25,idiot_number_3,,,5.0,0.0,1.0,562.5212259595573,f,181.33877404034138,f,test,1.0,,,
,p5cd_ad,64,211315,0.0-6.0-1.2-0.36,f078aa2862041786868ef9f2ad23336df49386eb98fe8259951830bdf7c3dbfd,5e230311699ac45b327786dc,"[198, 243, 98, 34, 66, 23, 154, 49, 254, 162, 26, 196, 97, 152, 32, 143, 161, 182, 224, 206, 226, 30, 174, 242, 121, 5, 249, 70, 217, 69, 31, 49]",5f182f6ff0709b22657648f9,5e230311699ac45b327786dc,5f1837ab108d1012466a4785,0.25,idiot_number_3,,,5.0,1.0,1.0,574.5329037566553,j,61.502096243202686,j,test,1.0,,,
,p5cd_ad,65,213915,0.0-6.0-1.2-0.37,f078aa2862041786868ef9f2ad23336df49386eb98fe8259951830bdf7c3dbfd,5e230311699ac45b327786dc,"[198, 243, 98, 34, 66, 23, 154, 49, 254, 162, 26, 196, 97, 152, 32, 143, 161, 182, 224, 206, 226, 30, 174, 242, 121, 5, 249, 70, 217, 69, 31, 49]",5f182f6ff0709b22657648f9,5e230311699ac45b327786dc,5f1837ab108d1012466a4785,0.25,idiot_number_3,,,3.0,0.0,1.0,1000.1533417322207,f,435.3216582676396,f,test,1.0,,,
,p5cd_ad,66,216348,0.0-6.0-1.2-0.38,f078aa2862041786868ef9f2ad23336df49386eb98fe8259951830bdf7c3dbfd,5e230311699ac45b327786dc,"[198, 243, 98, 34, 66, 23, 154, 49, 254, 162, 26, 196, 97, 152, 32, 143, 161, 182, 224, 206, 226, 30, 174, 242, 121, 5, 249, 70, 217, 69, 31, 49]",5f182f6ff0709b22657648f9,5e230311699ac45b327786dc,5f1837ab108d1012466a4785,0.25,idiot_number_3,,,9.0,1.0,1.0,964.2331714074535,f,303.90182859264314,j,test,0.0,,,
,p5cd_ad,67,218414,0.0-6.0-1.2-0.39,f078aa2862041786868ef9f2ad23336df49386eb98fe8259951830bdf7c3dbfd,5e230311699ac45b327786dc,"[198, 243, 98, 34, 66, 23, 154, 49, 254, 162, 26, 196, 97, 152, 32, 143, 161, 182, 224, 206, 226, 30, 174, 242, 121, 5, 249, 70, 217, 69, 31, 49]",5f182f6ff0709b22657648f9,5e230311699ac45b327786dc,5f1837ab108d1012466a4785,0.25,idiot_number_3,,,9.0,0.0,1.0,846.7162181774329,f,58.84378182236105,f,test,1.0,,,
,p5cd_ad,68,220581,0.0-6.0-1.2-0.40,f078aa2862041786868ef9f2ad23336df49386eb98fe8259951830bdf7c3dbfd,5e230311699ac45b327786dc,"[198, 243, 98, 34, 66, 23, 154, 49, 254, 162, 26, 196, 97, 152, 32, 143, 161, 182, 224, 206, 226, 30, 174, 242, 121, 5, 249, 70, 217, 69, 31, 49]",5f182f6ff0709b22657648f9,5e230311699ac45b327786dc,5f1837ab108d1012466a4785,0.25,idiot_number_3,,,3.0,0.0,0.0,520.2794913510443,f,479.9305086489767,f,test,1.0,,,
,p5cd_ad,69,222598,0.0-6.0-1.2-0.41,f078aa2862041786868ef9f2ad23336df49386eb98fe8259951830bdf7c3dbfd,5e230311699ac45b327786dc,"[198, 243, 98, 34, 66, 23, 154, 49, 254, 162, 26, 196, 97, 152, 32, 143, 161, 182, 224, 206, 226, 30, 174, 242, 121, 5, 249, 70, 217, 69, 31, 49]",5f182f6ff0709b22657648f9,5e230311699ac45b327786dc,5f1837ab108d1012466a4785,0.25,idiot_number_3,,,1.0,0.0,1.0,493.0601427166257,f,361.6998572833836,f,test,1.0,,,
,p5cd_ad,70,224615,0.0-6.0-1.2-0.42,f078aa2862041786868ef9f2ad23336df49386eb98fe8259951830bdf7c3dbfd,5e230311699ac45b327786dc,"[198, 243, 98, 34, 66, 23, 154, 49, 254, 162, 26, 196, 97, 152, 32, 143, 161, 182, 224, 206, 226, 30, 174, 242, 121, 5, 249, 70, 217, 69, 31, 49]",5f182f6ff0709b22657648f9,5e230311699ac45b327786dc,5f1837ab108d1012466a4785,0.25,idiot_number_3,,,9.0,1.0,0.0,659.840073876112,f,196.70992612373084,j,test,0.0,,,
,p5cd_ad,71,226881,0.0-6.0-1.2-0.43,f078aa2862041786868ef9f2ad23336df49386eb98fe8259951830bdf7c3dbfd,5e230311699ac45b327786dc,"[198, 243, 98, 34, 66, 23, 154, 49, 254, 162, 26, 196, 97, 152, 32, 143, 161, 182, 224, 206, 226, 30, 174, 242, 121, 5, 249, 70, 217, 69, 31, 49]",5f182f6ff0709b22657648f9,5e230311699ac45b327786dc,5f1837ab108d1012466a4785,0.25,idiot_number_3,,,5.0,1.0,0.0,853.1610034538899,f,257.89399654604495,j,test,0.0,,,
,p5cd_ad,72,229132,0.0-6.0-1.2-0.44,f078aa2862041786868ef9f2ad23336df49386eb98fe8259951830bdf7c3dbfd,5e230311699ac45b327786dc,"[198, 243, 98, 34, 66, 23, 154, 49, 254, 162, 26, 196, 97, 152, 32, 143, 161, 182, 224, 206, 226, 30, 174, 242, 121, 5, 249, 70, 217, 69, 31, 49]",5f182f6ff0709b22657648f9,5e230311699ac45b327786dc,5f1837ab108d1012466a4785,0.25,idiot_number_3,,,3.0,1.0,0.0,898.7168032741465,j,194.65319672599435,j,test,1.0,,,
,p5cd_ad,73,230998,0.0-6.0-1.2-0.45,f078aa2862041786868ef9f2ad23336df49386eb98fe8259951830bdf7c3dbfd,5e230311699ac45b327786dc,"[198, 243, 98, 34, 66, 23, 154, 49, 254, 162, 26, 196, 97, 152, 32, 143, 161, 182, 224, 206, 226, 30, 174, 242, 121, 5, 249, 70, 217, 69, 31, 49]",5f182f6ff0709b22657648f9,5e230311699ac45b327786dc,5f1837ab108d1012466a4785,0.25,idiot_number_3,,,1.0,1.0,0.0,523.7509194424783,j,182.1640805574134,j,test,1.0,,,
,p5cd_ad,74,232915,0.0-6.0-1.2-0.46,f078aa2862041786868ef9f2ad23336df49386eb98fe8259951830bdf7c3dbfd,5e230311699ac45b327786dc,"[198, 243, 98, 34, 66, 23, 154, 49, 254, 162, 26, 196, 97, 152, 32, 143, 161, 182, 224, 206, 226, 30, 174, 242, 121, 5, 249, 70, 217, 69, 31, 49]",5f182f6ff0709b22657648f9,5e230311699ac45b327786dc,5f1837ab108d1012466a4785,0.25,idiot_number_3,,,9.0,0.0,0.0,716.1563730313501,f,43.628626968711615,f,test,1.0,,,
,p5cd_ad,75,234548,0.0-6.0-1.2-0.47,f078aa2862041786868ef9f2ad23336df49386eb98fe8259951830bdf7c3dbfd,5e230311699ac45b327786dc,"[198, 243, 98, 34, 66, 23, 154, 49, 254, 162, 26, 196, 97, 152, 32, 143, 161, 182, 224, 206, 226, 30, 174, 242, 121, 5, 249, 70, 217, 69, 31, 49]",5f182f6ff0709b22657648f9,5e230311699ac45b327786dc,5f1837ab108d1012466a4785,0.25,idiot_number_3,,,3.0,1.0,1.0,453.4044250579609,f,13.205574941821396,j,test,0.0,,,
,p5Text,76,243303,0.0-6.0-2.2,f078aa2862041786868ef9f2ad23336df49386eb98fe8259951830bdf7c3dbfd,5e230311699ac45b327786dc,"[198, 243, 98, 34, 66, 23, 154, 49, 254, 162, 26, 196, 97, 152, 32, 143, 161, 182, 224, 206, 226, 30, 174, 242, 121, 5, 249, 70, 217, 69, 31, 49]",5f182f6ff0709b22657648f9,5e230311699ac45b327786dc,5f1837ab108d1012466a4785,0.25,idiot_number_3,,,,,,,,,,,,,,
,p5Text,77,244622,0.0-6.0-0.3,f078aa2862041786868ef9f2ad23336df49386eb98fe8259951830bdf7c3dbfd,5e230311699ac45b327786dc,"[198, 243, 98, 34, 66, 23, 154, 49, 254, 162, 26, 196, 97, 152, 32, 143, 161, 182, 224, 206, 226, 30, 174, 242, 121, 5, 249, 70, 217, 69, 31, 49]",5f182f6ff0709b22657648f9,5e230311699ac45b327786dc,5f1837ab108d1012466a4785,0.25,idiot_number_3,,,,,,,,,,,,,,
,p5cd_ad,78,246781,0.0-6.0-1.3-0.48,f078aa2862041786868ef9f2ad23336df49386eb98fe8259951830bdf7c3dbfd,5e230311699ac45b327786dc,"[198, 243, 98, 34, 66, 23, 154, 49, 254, 162, 26, 196, 97, 152, 32, 143, 161, 182, 224, 206, 226, 30, 174, 242, 121, 5, 249, 70, 217, 69, 31, 49]",5f182f6ff0709b22657648f9,5e230311699ac45b327786dc,5f1837ab108d1012466a4785,0.25,idiot_number_3,,,1.0,0.0,0.0,615.775231517182,f,383.77976848278195,f,test,1.0,,,
,p5cd_ad,79,248865,0.0-6.0-1.3-0.49,f078aa2862041786868ef9f2ad23336df49386eb98fe8259951830bdf7c3dbfd,5e230311699ac45b327786dc,"[198, 243, 98, 34, 66, 23, 154, 49, 254, 162, 26, 196, 97, 152, 32, 143, 161, 182, 224, 206, 226, 30, 174, 242, 121, 5, 249, 70, 217, 69, 31, 49]",5f182f6ff0709b22657648f9,5e230311699ac45b327786dc,5f1837ab108d1012466a4785,0.25,idiot_number_3,,,1.0,1.0,1.0,515.7399487844668,j,404.44505121558905,j,test,1.0,,,
,p5cd_ad,80,251465,0.0-6.0-1.3-0.50,f078aa2862041786868ef9f2ad23336df49386eb98fe8259951830bdf7c3dbfd,5e230311699ac45b327786dc,"[198, 243, 98, 34, 66, 23, 154, 49, 254, 162, 26, 196, 97, 152, 32, 143, 161, 182, 224, 206, 226, 30, 174, 242, 121, 5, 249, 70, 217, 69, 31, 49]",5f182f6ff0709b22657648f9,5e230311699ac45b327786dc,5f1837ab108d1012466a4785,0.25,idiot_number_3,,,3.0,0.0,0.0,952.30870435611,f,493.2512956438586,f,test,1.0,,,
,p5cd_ad,81,254282,0.0-6.0-1.3-0.51,f078aa2862041786868ef9f2ad23336df49386eb98fe8259951830bdf7c3dbfd,5e230311699ac45b327786dc,"[198, 243, 98, 34, 66, 23, 154, 49, 254, 162, 26, 196, 97, 152, 32, 143, 161, 182, 224, 206, 226, 30, 174, 242, 121, 5, 249, 70, 217, 69, 31, 49]",5f182f6ff0709b22657648f9,5e230311699ac45b327786dc,5f1837ab108d1012466a4785,0.25,idiot_number_3,,,5.0,1.0,0.0,1392.525237405469,f,267.71476259455085,j,test,0.0,,,
,p5cd_ad,82,256314,0.0-6.0-1.3-0.52,f078aa2862041786868ef9f2ad23336df49386eb98fe8259951830bdf7c3dbfd,5e230311699ac45b327786dc,"[198, 243, 98, 34, 66, 23, 154, 49, 254, 162, 26, 196, 97, 152, 32, 143, 161, 182, 224, 206, 226, 30, 174, 242, 121, 5, 249, 70, 217, 69, 31, 49]",5f182f6ff0709b22657648f9,5e230311699ac45b327786dc,5f1837ab108d1012466a4785,0.25,idiot_number_3,,,1.0,1.0,0.0,548.0507129501493,j,328.0142870498821,j,test,1.0,,,
,p5cd_ad,83,258665,0.0-6.0-1.3-0.53,f078aa2862041786868ef9f2ad23336df49386eb98fe8259951830bdf7c3dbfd,5e230311699ac45b327786dc,"[198, 243, 98, 34, 66, 23, 154, 49, 254, 162, 26, 196, 97, 152, 32, 143, 161, 182, 224, 206, 226, 30, 174, 242, 121, 5, 249, 70, 217, 69, 31, 49]",5f182f6ff0709b22657648f9,5e230311699ac45b327786dc,5f1837ab108d1012466a4785,0.25,idiot_number_3,,,9.0,1.0,0.0,977.295280309685,f,218.09471969027072,j,test,0.0,,,
,p5cd_ad,84,261081,0.0-6.0-1.3-0.54,f078aa2862041786868ef9f2ad23336df49386eb98fe8259951830bdf7c3dbfd,5e230311699ac45b327786dc,"[198, 243, 98, 34, 66, 23, 154, 49, 254, 162, 26, 196, 97, 152, 32, 143, 161, 182, 224, 206, 226, 30, 174, 242, 121, 5, 249, 70, 217, 69, 31, 49]",5f182f6ff0709b22657648f9,5e230311699ac45b327786dc,5f1837ab108d1012466a4785,0.25,idiot_number_3,,,9.0,0.0,1.0,893.086267855193,f,368.21373214479536,f,test,1.0,,,
,p5cd_ad,85,263297,0.0-6.0-1.3-0.55,f078aa2862041786868ef9f2ad23336df49386eb98fe8259951830bdf7c3dbfd,5e230311699ac45b327786dc,"[198, 243, 98, 34, 66, 23, 154, 49, 254, 162, 26, 196, 97, 152, 32, 143, 161, 182, 224, 206, 226, 30, 174, 242, 121, 5, 249, 70, 217, 69, 31, 49]",5f182f6ff0709b22657648f9,5e230311699ac45b327786dc,5f1837ab108d1012466a4785,0.25,idiot_number_3,,,5.0,1.0,1.0,939.177943538496,f,121.92705646157265,j,test,0.0,,,
,p5cd_ad,86,265131,0.0-6.0-1.3-0.56,f078aa2862041786868ef9f2ad23336df49386eb98fe8259951830bdf7c3dbfd,5e230311699ac45b327786dc,"[198, 243, 98, 34, 66, 23, 154, 49, 254, 162, 26, 196, 97, 152, 32, 143, 161, 182, 224, 206, 226, 30, 174, 242, 121, 5, 249, 70, 217, 69, 31, 49]",5f182f6ff0709b22657648f9,5e230311699ac45b327786dc,5f1837ab108d1012466a4785,0.25,idiot_number_3,,,3.0,1.0,0.0,592.4377257020678,j,76.2172742979601,j,test,1.0,,,
,p5cd_ad,87,267231,0.0-6.0-1.3-0.57,f078aa2862041786868ef9f2ad23336df49386eb98fe8259951830bdf7c3dbfd,5e230311699ac45b327786dc,"[198, 243, 98, 34, 66, 23, 154, 49, 254, 162, 26, 196, 97, 152, 32, 143, 161, 182, 224, 206, 226, 30, 174, 242, 121, 5, 249, 70, 217, 69, 31, 49]",5f182f6ff0709b22657648f9,5e230311699ac45b327786dc,5f1837ab108d1012466a4785,0.25,idiot_number_3,,,5.0,0.0,1.0,771.6209783928934,f,175.04902160726488,f,test,1.0,,,
,p5cd_ad,88,269681,0.0-6.0-1.3-0.58,f078aa2862041786868ef9f2ad23336df49386eb98fe8259951830bdf7c3dbfd,5e230311699ac45b327786dc,"[198, 243, 98, 34, 66, 23, 154, 49, 254, 162, 26, 196, 97, 152, 32, 143, 161, 182, 224, 206, 226, 30, 174, 242, 121, 5, 249, 70, 217, 69, 31, 49]",5f182f6ff0709b22657648f9,5e230311699ac45b327786dc,5f1837ab108d1012466a4785,0.25,idiot_number_3,,,9.0,1.0,1.0,994.4634147788165,j,292.1515852212906,j,test,1.0,,,
,p5cd_ad,89,271915,0.0-6.0-1.3-0.59,f078aa2862041786868ef9f2ad23336df49386eb98fe8259951830bdf7c3dbfd,5e230311699ac45b327786dc,"[198, 243, 98, 34, 66, 23, 154, 49, 254, 162, 26, 196, 97, 152, 32, 143, 161, 182, 224, 206, 226, 30, 174, 242, 121, 5, 249, 70, 217, 69, 31, 49]",5f182f6ff0709b22657648f9,5e230311699ac45b327786dc,5f1837ab108d1012466a4785,0.25,idiot_number_3,,,3.0,1.0,1.0,723.4376760187442,j,352.8773239813745,j,test,1.0,,,
,p5cd_ad,90,274248,0.0-6.0-1.3-0.60,f078aa2862041786868ef9f2ad23336df49386eb98fe8259951830bdf7c3dbfd,5e230311699ac45b327786dc,"[198, 243, 98, 34, 66, 23, 154, 49, 254, 162, 26, 196, 97, 152, 32, 143, 161, 182, 224, 206, 226, 30, 174, 242, 121, 5, 249, 70, 217, 69, 31, 49]",5f182f6ff0709b22657648f9,5e230311699ac45b327786dc,5f1837ab108d1012466a4785,0.25,idiot_number_3,,,5.0,0.0,0.0,777.0094645284698,f,401.75053547136486,f,test,1.0,,,
,p5cd_ad,91,277280,0.0-6.0-1.3-0.61,f078aa2862041786868ef9f2ad23336df49386eb98fe8259951830bdf7c3dbfd,5e230311699ac45b327786dc,"[198, 243, 98, 34, 66, 23, 154, 49, 254, 162, 26, 196, 97, 152, 32, 143, 161, 182, 224, 206, 226, 30, 174, 242, 121, 5, 249, 70, 217, 69, 31, 49]",5f182f6ff0709b22657648f9,5e230311699ac45b327786dc,5f1837ab108d1012466a4785,0.25,idiot_number_3,,,3.0,0.0,1.0,1458.0406009489088,f,420.3743990510702,f,test,1.0,,,
,p5cd_ad,92,279381,0.0-6.0-1.3-0.62,f078aa2862041786868ef9f2ad23336df49386eb98fe8259951830bdf7c3dbfd,5e230311699ac45b327786dc,"[198, 243, 98, 34, 66, 23, 154, 49, 254, 162, 26, 196, 97, 152, 32, 143, 161, 182, 224, 206, 226, 30, 174, 242, 121, 5, 249, 70, 217, 69, 31, 49]",5f182f6ff0709b22657648f9,5e230311699ac45b327786dc,5f1837ab108d1012466a4785,0.25,idiot_number_3,,,9.0,0.0,0.0,851.6139849876636,f,89.86601501237601,f,test,1.0,,,
,p5cd_ad,93,281465,0.0-6.0-1.3-0.63,f078aa2862041786868ef9f2ad23336df49386eb98fe8259951830bdf7c3dbfd,5e230311699ac45b327786dc,"[198, 243, 98, 34, 66, 23, 154, 49, 254, 162, 26, 196, 97, 152, 32, 143, 161, 182, 224, 206, 226, 30, 174, 242, 121, 5, 249, 70, 217, 69, 31, 49]",5f182f6ff0709b22657648f9,5e230311699ac45b327786dc,5f1837ab108d1012466a4785,0.25,idiot_number_3,,,1.0,0.0,1.0,823.5376851665787,f,104.39731483347714,f,test,1.0,,,
,p5Text,94,289504,0.0-6.0-2.3,f078aa2862041786868ef9f2ad23336df49386eb98fe8259951830bdf7c3dbfd,5e230311699ac45b327786dc,"[198, 243, 98, 34, 66, 23, 154, 49, 254, 162, 26, 196, 97, 152, 32, 143, 161, 182, 224, 206, 226, 30, 174, 242, 121, 5, 249, 70, 217, 69, 31, 49]",5f182f6ff0709b22657648f9,5e230311699ac45b327786dc,5f1837ab108d1012466a4785,0.25,idiot_number_3,,,,,,,,,,,,,,
,survey-text,95,336929,0.0-7.0,f078aa2862041786868ef9f2ad23336df49386eb98fe8259951830bdf7c3dbfd,5e230311699ac45b327786dc,"[198, 243, 98, 34, 66, 23, 154, 49, 254, 162, 26, 196, 97, 152, 32, 143, 161, 182, 224, 206, 226, 30, 174, 242, 121, 5, 249, 70, 217, 69, 31, 49]",5f182f6ff0709b22657648f9,5e230311699ac45b327786dc,5f1837ab108d1012466a4785,0.25,idiot_number_3,47417.80999999994,,,,,,,,,,,,,"{""worker_comments"":"" It's hard. I'm an older person so my reflexes are not as fast as necessary for this. Once or twice I pressed the wrong key just out of general confusion.""}"
,p5Text,96,343646,0.0-8.0,f078aa2862041786868ef9f2ad23336df49386eb98fe8259951830bdf7c3dbfd,5e230311699ac45b327786dc,"[198, 243, 98, 34, 66, 23, 154, 49, 254, 162, 26, 196, 97, 152, 32, 143, 161, 182, 224, 206, 226, 30, 174, 242, 121, 5, 249, 70, 217, 69, 31, 49]",5f182f6ff0709b22657648f9,5e230311699ac45b327786dc,5f1837ab108d1012466a4785,0.25,idiot_number_3,,,,,,,,,,,,,,
1.0,fullscreen,0,5241,0.0-0.0,f078aa2862041786868ef9f2ad23336df49386eb98fe8259951830bdf7c3dbfd,5f031ce1945c554c8413742c,"[231, 207, 102, 157, 57, 16, 161, 123, 28, 101, 171, 177, 229, 31, 191, 117, 226, 157, 97, 146, 58, 212, 222, 106, 49, 89, 187, 136, 45, 27, 49, 174]",5f182f6ff0709b22657648f9,5f031ce1945c554c8413742c,5f1833e296688011db67eb57,0.22,tomynatorexsan,,,,,,,,,,,,,,
,external-html,1,16905,0.0-1.0,f078aa2862041786868ef9f2ad23336df49386eb98fe8259951830bdf7c3dbfd,5f031ce1945c554c8413742c,"[231, 207, 102, 157, 57, 16, 161, 123, 28, 101, 171, 177, 229, 31, 191, 117, 226, 157, 97, 146, 58, 212, 222, 106, 49, 89, 187, 136, 45, 27, 49, 174]",5f182f6ff0709b22657648f9,5f031ce1945c554c8413742c,5f1833e296688011db67eb57,0.22,tomynatorexsan,11590.0,nickname.html,,,,,,,,,,,,
,p5Text,2,20869,0.0-2.0,f078aa2862041786868ef9f2ad23336df49386eb98fe8259951830bdf7c3dbfd,5f031ce1945c554c8413742c,"[231, 207, 102, 157, 57, 16, 161, 123, 28, 101, 171, 177, 229, 31, 191, 117, 226, 157, 97, 146, 58, 212, 222, 106, 49, 89, 187, 136, 45, 27, 49, 174]",5f182f6ff0709b22657648f9,5f031ce1945c554c8413742c,5f1833e296688011db67eb57,0.22,tomynatorexsan,,,,,,,,,,,,,,
,p5Text,3,54743,0.0-3.0-0.0,f078aa2862041786868ef9f2ad23336df49386eb98fe8259951830bdf7c3dbfd,5f031ce1945c554c8413742c,"[231, 207, 102, 157, 57, 16, 161, 123, 28, 101, 171, 177, 229, 31, 191, 117, 226, 157, 97, 146, 58, 212, 222, 106, 49, 89, 187, 136, 45, 27, 49, 174]",5f182f6ff0709b22657648f9,5f031ce1945c554c8413742c,5f1833e296688011db67eb57,0.22,tomynatorexsan,,,,,,,,,,,,,,
,p5cd_ad,4,57465,0.0-3.0-1.0-0.0,f078aa2862041786868ef9f2ad23336df49386eb98fe8259951830bdf7c3dbfd,5f031ce1945c554c8413742c,"[231, 207, 102, 157, 57, 16, 161, 123, 28, 101, 171, 177, 229, 31, 191, 117, 226, 157, 97, 146, 58, 212, 222, 106, 49, 89, 187, 136, 45, 27, 49, 174]",5f182f6ff0709b22657648f9,5f031ce1945c554c8413742c,5f1833e296688011db67eb57,0.22,tomynatorexsan,,,3.0,0.0,0.0,842.1857396550477,f,363.81426034495234,f,practice,1.0,,,
,html-keyboard-response,5,58470,0.0-3.0-1.0-1.0,f078aa2862041786868ef9f2ad23336df49386eb98fe8259951830bdf7c3dbfd,5f031ce1945c554c8413742c,"[231, 207, 102, 157, 57, 16, 161, 123, 28, 101, 171, 177, 229, 31, 191, 117, 226, 157, 97, 146, 58, 212, 222, 106, 49, 89, 187, 136, 45, 27, 49, 174]",5f182f6ff0709b22657648f9,5f031ce1945c554c8413742c,5f1833e296688011db67eb57,0.22,tomynatorexsan,,,,,,,,,,,,"<div style=""width:150px;height:56px;font-size:30px;text-align:center;"">correct!</div>",,
,p5cd_ad,6,61026,0.0-3.0-1.0-0.1,f078aa2862041786868ef9f2ad23336df49386eb98fe8259951830bdf7c3dbfd,5f031ce1945c554c8413742c,"[231, 207, 102, 157, 57, 16, 161, 123, 28, 101, 171, 177, 229, 31, 191, 117, 226, 157, 97, 146, 58, 212, 222, 106, 49, 89, 187, 136, 45, 27, 49, 174]",5f182f6ff0709b22657648f9,5f031ce1945c554c8413742c,5f1833e296688011db67eb57,0.22,tomynatorexsan,,,3.0,0.0,1.0,604.0955976620317,f,441.90440233796835,f,practice,1.0,,,
,html-keyboard-response,7,62030,0.0-3.0-1.0-1.1,f078aa2862041786868ef9f2ad23336df49386eb98fe8259951830bdf7c3dbfd,5f031ce1945c554c8413742c,"[231, 207, 102, 157, 57, 16, 161, 123, 28, 101, 171, 177, 229, 31, 191, 117, 226, 157, 97, 146, 58, 212, 222, 106, 49, 89, 187, 136, 45, 27, 49, 174]",5f182f6ff0709b22657648f9,5f031ce1945c554c8413742c,5f1833e296688011db67eb57,0.22,tomynatorexsan,,,,,,,,,,,,"<div style=""width:150px;height:56px;font-size:30px;text-align:center;"">correct!</div>",,
,p5cd_ad,8,66497,0.0-3.0-1.0-0.2,f078aa2862041786868ef9f2ad23336df49386eb98fe8259951830bdf7c3dbfd,5f031ce1945c554c8413742c,"[231, 207, 102, 157, 57, 16, 161, 123, 28, 101, 171, 177, 229, 31, 191, 117, 226, 157, 97, 146, 58, 212, 222, 106, 49, 89, 187, 136, 45, 27, 49, 174]",5f182f6ff0709b22657648f9,5f031ce1945c554c8413742c,5f1833e296688011db67eb57,0.22,tomynatorexsan,,,3.0,1.0,1.0,2481.6330924825743,j,472.3669075174257,j,practice,1.0,,,
,html-keyboard-response,9,67510,0.0-3.0-1.0-1.2,f078aa2862041786868ef9f2ad23336df49386eb98fe8259951830bdf7c3dbfd,5f031ce1945c554c8413742c,"[231, 207, 102, 157, 57, 16, 161, 123, 28, 101, 171, 177, 229, 31, 191, 117, 226, 157, 97, 146, 58, 212, 222, 106, 49, 89, 187, 136, 45, 27, 49, 174]",5f182f6ff0709b22657648f9,5f031ce1945c554c8413742c,5f1833e296688011db67eb57,0.22,tomynatorexsan,,,,,,,,,,,,"<div style=""width:150px;height:56px;font-size:30px;text-align:center;"">correct!</div>",,
,p5cd_ad,10,70021,0.0-3.0-1.0-0.3,f078aa2862041786868ef9f2ad23336df49386eb98fe8259951830bdf7c3dbfd,5f031ce1945c554c8413742c,"[231, 207, 102, 157, 57, 16, 161, 123, 28, 101, 171, 177, 229, 31, 191, 117, 226, 157, 97, 146, 58, 212, 222, 106, 49, 89, 187, 136, 45, 27, 49, 174]",5f182f6ff0709b22657648f9,5f031ce1945c554c8413742c,5f1833e296688011db67eb57,0.22,tomynatorexsan,,,3.0,1.0,0.0,850.4948433516547,j,146.5051566483453,j,practice,1.0,,,
,html-keyboard-response,11,71039,0.0-3.0-1.0-1.3,f078aa2862041786868ef9f2ad23336df49386eb98fe8259951830bdf7c3dbfd,5f031ce1945c554c8413742c,"[231, 207, 102, 157, 57, 16, 161, 123, 28, 101, 171, 177, 229, 31, 191, 117, 226, 157, 97, 146, 58, 212, 222, 106, 49, 89, 187, 136, 45, 27, 49, 174]",5f182f6ff0709b22657648f9,5f031ce1945c554c8413742c,5f1833e296688011db67eb57,0.22,tomynatorexsan,,,,,,,,,,,,"<div style=""width:150px;height:56px;font-size:30px;text-align:center;"">correct!</div>",,
,p5Text,12,125760,0.0-4.0,f078aa2862041786868ef9f2ad23336df49386eb98fe8259951830bdf7c3dbfd,5f031ce1945c554c8413742c,"[231, 207, 102, 157, 57, 16, 161, 123, 28, 101, 171, 177, 229, 31, 191, 117, 226, 157, 97, 146, 58, 212, 222, 106, 49, 89, 187, 136, 45, 27, 49, 174]",5f182f6ff0709b22657648f9,5f031ce1945c554c8413742c,5f1833e296688011db67eb57,0.22,tomynatorexsan,,,,,,,,,,,,,,
,p5Text,13,159221,0.0-5.0,f078aa2862041786868ef9f2ad23336df49386eb98fe8259951830bdf7c3dbfd,5f031ce1945c554c8413742c,"[231, 207, 102, 157, 57, 16, 161, 123, 28, 101, 171, 177, 229, 31, 191, 117, 226, 157, 97, 146, 58, 212, 222, 106, 49, 89, 187, 136, 45, 27, 49, 174]",5f182f6ff0709b22657648f9,5f031ce1945c554c8413742c,5f1833e296688011db67eb57,0.22,tomynatorexsan,,,,,,,,,,,,,,
,p5Text,14,181939,0.0-6.0-0.0,f078aa2862041786868ef9f2ad23336df49386eb98fe8259951830bdf7c3dbfd,5f031ce1945c554c8413742c,"[231, 207, 102, 157, 57, 16, 161, 123, 28, 101, 171, 177, 229, 31, 191, 117, 226, 157, 97, 146, 58, 212, 222, 106, 49, 89, 187, 136, 45, 27, 49, 174]",5f182f6ff0709b22657648f9,5f031ce1945c554c8413742c,5f1833e296688011db67eb57,0.22,tomynatorexsan,,,,,,,,,,,,,,
,p5cd_ad,15,187202,0.0-6.0-1.0-0.0,f078aa2862041786868ef9f2ad23336df49386eb98fe8259951830bdf7c3dbfd,5f031ce1945c554c8413742c,"[231, 207, 102, 157, 57, 16, 161, 123, 28, 101, 171, 177, 229, 31, 191, 117, 226, 157, 97, 146, 58, 212, 222, 106, 49, 89, 187, 136, 45, 27, 49, 174]",5f182f6ff0709b22657648f9,5f031ce1945c554c8413742c,5f1833e296688011db67eb57,0.22,tomynatorexsan,,,1.0,1.0,0.0,4040.5127504616976,j,58.48724953830242,j,test,1.0,,,
,p5cd_ad,16,190777,0.0-6.0-1.0-0.1,f078aa2862041786868ef9f2ad23336df49386eb98fe8259951830bdf7c3dbfd,5f031ce1945c554c8413742c,"[231, 207, 102, 157, 57, 16, 161, 123, 28, 101, 171, 177, 229, 31, 191, 117, 226, 157, 97, 146, 58, 212, 222, 106, 49, 89, 187, 136, 45, 27, 49, 174]",5f182f6ff0709b22657648f9,5f031ce1945c554c8413742c,5f1833e296688011db67eb57,0.22,tomynatorexsan,,,9.0,1.0,1.0,2123.865166693926,f,285.13483330607414,j,test,0.0,,,
,p5cd_ad,17,193686,0.0-6.0-1.0-0.2,f078aa2862041786868ef9f2ad23336df49386eb98fe8259951830bdf7c3dbfd,5f031ce1945c554c8413742c,"[231, 207, 102, 157, 57, 16, 161, 123, 28, 101, 171, 177, 229, 31, 191, 117, 226, 157, 97, 146, 58, 212, 222, 106, 49, 89, 187, 136, 45, 27, 49, 174]",5f182f6ff0709b22657648f9,5f031ce1945c554c8413742c,5f1833e296688011db67eb57,0.22,tomynatorexsan,,,3.0,1.0,1.0,1383.3778397683054,f,362.6221602316946,j,test,0.0,,,
,p5cd_ad,18,195766,0.0-6.0-1.0-0.3,f078aa2862041786868ef9f2ad23336df49386eb98fe8259951830bdf7c3dbfd,5f031ce1945c554c8413742c,"[231, 207, 102, 157, 57, 16, 161, 123, 28, 101, 171, 177, 229, 31, 191, 117, 226, 157, 97, 146, 58, 212, 222, 106, 49, 89, 187, 136, 45, 27, 49, 174]",5f182f6ff0709b22657648f9,5f031ce1945c554c8413742c,5f1833e296688011db67eb57,0.22,tomynatorexsan,,,1.0,1.0,1.0,489.40459021925926,j,434.59540978074074,j,test,1.0,,,
,p5cd_ad,19,200023,0.0-6.0-1.0-0.4,f078aa2862041786868ef9f2ad23336df49386eb98fe8259951830bdf7c3dbfd,5f031ce1945c554c8413742c,"[231, 207, 102, 157, 57, 16, 161, 123, 28, 101, 171, 177, 229, 31, 191, 117, 226, 157, 97, 146, 58, 212, 222, 106, 49, 89, 187, 136, 45, 27, 49, 174]",5f182f6ff0709b22657648f9,5f031ce1945c554c8413742c,5f1833e296688011db67eb57,0.22,tomynatorexsan,,,9.0,0.0,1.0,2975.786406061612,f,120.21359393838793,f,test,1.0,,,
,p5cd_ad,20,203067,0.0-6.0-1.0-0.5,f078aa2862041786868ef9f2ad23336df49386eb98fe8259951830bdf7c3dbfd,5f031ce1945c554c8413742c,"[231, 207, 102, 157, 57, 16, 161, 123, 28, 101, 171, 177, 229, 31, 191, 117, 226, 157, 97, 146, 58, 212, 222, 106, 49, 89, 187, 136, 45, 27, 49, 174]",5f182f6ff0709b22657648f9,5f031ce1945c554c8413742c,5f1833e296688011db67eb57,0.22,tomynatorexsan,,,9.0,0.0,0.0,1438.8460491746664,f,440.1539508253336,f,test,1.0,,,
,p5cd_ad,21,204963,0.0-6.0-1.0-0.6,f078aa2862041786868ef9f2ad23336df49386eb98fe8259951830bdf7c3dbfd,5f031ce1945c554c8413742c,"[231, 207, 102, 157, 57, 16, 161, 123, 28, 101, 171, 177, 229, 31, 191, 117, 226, 157, 97, 146, 58, 212, 222, 106, 49, 89, 187, 136, 45, 27, 49, 174]",5f182f6ff0709b22657648f9,5f031ce1945c554c8413742c,5f1833e296688011db67eb57,0.22,tomynatorexsan,,,5.0,1.0,1.0,663.4176871450618,f,67.58231285493821,j,test,0.0,,,
,p5cd_ad,22,206992,0.0-6.0-1.0-0.7,f078aa2862041786868ef9f2ad23336df49386eb98fe8259951830bdf7c3dbfd,5f031ce1945c554c8413742c,"[231, 207, 102, 157, 57, 16, 161, 123, 28, 101, 171, 177, 229, 31, 191, 117, 226, 157, 97, 146, 58, 212, 222, 106, 49, 89, 187, 136, 45, 27, 49, 174]",5f182f6ff0709b22657648f9,5f031ce1945c554c8413742c,5f1833e296688011db67eb57,0.22,tomynatorexsan,,,9.0,1.0,0.0,572.5088910749182,f,293.4911089250818,j,test,0.0,,,
,p5cd_ad,23,209437,0.0-6.0-1.0-0.8,f078aa2862041786868ef9f2ad23336df49386eb98fe8259951830bdf7c3dbfd,5f031ce1945c554c8413742c,"[231, 207, 102, 157, 57, 16, 161, 123, 28, 101, 171, 177, 229, 31, 191, 117, 226, 157, 97, 146, 58, 212, 222, 106, 49, 89, 187, 136, 45, 27, 49, 174]",5f182f6ff0709b22657648f9,5f031ce1945c554c8413742c,5f1833e296688011db67eb57,0.22,tomynatorexsan,,,5.0,0.0,0.0,874.2936589233577,f,406.7063410766423,f,test,1.0,,,
,p5cd_ad,24,213195,0.0-6.0-1.0-0.9,f078aa2862041786868ef9f2ad23336df49386eb98fe8259951830bdf7c3dbfd,5f031ce1945c554c8413742c,"[231, 207, 102, 157, 57, 16, 161, 123, 28, 101, 171, 177, 229, 31, 191, 117, 226, 157, 97, 146, 58, 212, 222, 106, 49, 89, 187, 136, 45, 27, 49, 174]",5f182f6ff0709b22657648f9,5f031ce1945c554c8413742c,5f1833e296688011db67eb57,0.22,tomynatorexsan,,,5.0,1.0,0.0,2537.780418019742,f,56.219581980258226,j,test,0.0,,,
,p5cd_ad,25,215624,0.0-6.0-1.0-0.10,f078aa2862041786868ef9f2ad23336df49386eb98fe8259951830bdf7c3dbfd,5f031ce1945c554c8413742c,"[231, 207, 102, 157, 57, 16, 161, 123, 28, 101, 171, 177, 229, 31, 191, 117, 226, 157, 97, 146, 58, 212, 222, 106, 49, 89, 187, 136, 45, 27, 49, 174]",5f182f6ff0709b22657648f9,5f031ce1945c554c8413742c,5f1833e296688011db67eb57,0.22,tomynatorexsan,,,3.0,1.0,0.0,969.6698338771239,j,300.3301661228761,j,test,1.0,,,
,p5cd_ad,26,218236,0.0-6.0-1.0-0.11,f078aa2862041786868ef9f2ad23336df49386eb98fe8259951830bdf7c3dbfd,5f031ce1945c554c8413742c,"[231, 207, 102, 157, 57, 16, 161, 123, 28, 101, 171, 177, 229, 31, 191, 117, 226, 157, 97, 146, 58, 212, 222, 106, 49, 89, 187, 136, 45, 27, 49, 174]",5f182f6ff0709b22657648f9,5f031ce1945c554c8413742c,5f1833e296688011db67eb57,0.22,tomynatorexsan,,,1.0,0.0,1.0,964.0250065857545,f,482.97499341424555,f,test,1.0,,,
,p5cd_ad,27,220215,0.0-6.0-1.0-0.12,f078aa2862041786868ef9f2ad23336df49386eb98fe8259951830bdf7c3dbfd,5f031ce1945c554c8413742c,"[231, 207, 102, 157, 57, 16, 161, 123, 28, 101, 171, 177, 229, 31, 191, 117, 226, 157, 97, 146, 58, 212, 222, 106, 49, 89, 187, 136, 45, 27, 49, 174]",5f182f6ff0709b22657648f9,5f031ce1945c554c8413742c,5f1833e296688011db67eb57,0.22,tomynatorexsan,,,3.0,0.0,1.0,733.9620544202626,f,81.03794557973742,f,test,1.0,,,
,p5cd_ad,28,224239,0.0-6.0-1.0-0.13,f078aa2862041786868ef9f2ad23336df49386eb98fe8259951830bdf7c3dbfd,5f031ce1945c554c8413742c,"[231, 207, 102, 157, 57, 16, 161, 123, 28, 101, 171, 177, 229, 31, 191, 117, 226, 157, 97, 146, 58, 212, 222, 106, 49, 89, 187, 136, 45, 27, 49, 174]",5f182f6ff0709b22657648f9,5f031ce1945c554c8413742c,5f1833e296688011db67eb57,0.22,tomynatorexsan,,,5.0,0.0,1.0,2468.9465796938166,f,392.0534203061834,f,test,1.0,,,
,p5cd_ad,29,226633,0.0-6.0-1.0-0.14,f078aa2862041786868ef9f2ad23336df49386eb98fe8259951830bdf7c3dbfd,5f031ce1945c554c8413742c,"[231, 207, 102, 157, 57, 16, 161, 123, 28, 101, 171, 177, 229, 31, 191, 117, 226, 157, 97, 146, 58, 212, 222, 106, 49, 89, 187, 136, 45, 27, 49, 174]",5f182f6ff0709b22657648f9,5f031ce1945c554c8413742c,5f1833e296688011db67eb57,0.22,tomynatorexsan,,,1.0,0.0,0.0,758.7703797174618,f,476.22962028253824,f,test,1.0,,,
,p5cd_ad,30,229762,0.0-6.0-1.0-0.15,f078aa2862041786868ef9f2ad23336df49386eb98fe8259951830bdf7c3dbfd,5f031ce1945c554c8413742c,"[231, 207, 102, 157, 57, 16, 161, 123, 28, 101, 171, 177, 229, 31, 191, 117, 226, 157, 97, 146, 58, 212, 222, 106, 49, 89, 187, 136, 45, 27, 49, 174]",5f182f6ff0709b22657648f9,5f031ce1945c554c8413742c,5f1833e296688011db67eb57,0.22,tomynatorexsan,,,3.0,0.0,0.0,1904.8614225424826,j,62.138577457517385,f,test,0.0,,,
,p5Text,31,416284,0.0-6.0-2.0,f078aa2862041786868ef9f2ad23336df49386eb98fe8259951830bdf7c3dbfd,5f031ce1945c554c8413742c,"[231, 207, 102, 157, 57, 16, 161, 123, 28, 101, 171, 177, 229, 31, 191, 117, 226, 157, 97, 146, 58, 212, 222, 106, 49, 89, 187, 136, 45, 27, 49, 174]",5f182f6ff0709b22657648f9,5f031ce1945c554c8413742c,5f1833e296688011db67eb57,0.22,tomynatorexsan,,,,,,,,,,,,,,
,p5Text,32,424363,0.0-6.0-0.1,f078aa2862041786868ef9f2ad23336df49386eb98fe8259951830bdf7c3dbfd,5f031ce1945c554c8413742c,"[231, 207, 102, 157, 57, 16, 161, 123, 28, 101, 171, 177, 229, 31, 191, 117, 226, 157, 97, 146, 58, 212, 222, 106, 49, 89, 187, 136, 45, 27, 49, 174]",5f182f6ff0709b22657648f9,5f031ce1945c554c8413742c,5f1833e296688011db67eb57,0.22,tomynatorexsan,,,,,,,,,,,,,,
,p5cd_ad,33,427202,0.0-6.0-1.1-0.16,f078aa2862041786868ef9f2ad23336df49386eb98fe8259951830bdf7c3dbfd,5f031ce1945c554c8413742c,"[231, 207, 102, 157, 57, 16, 161, 123, 28, 101, 171, 177, 229, 31, 191, 117, 226, 157, 97, 146, 58, 212, 222, 106, 49, 89, 187, 136, 45, 27, 49, 174]",5f182f6ff0709b22657648f9,5f031ce1945c554c8413742c,5f1833e296688011db67eb57,0.22,tomynatorexsan,,,3.0,1.0,0.0,1453.853856583126,j,224.1461434168741,j,test,1.0,,,
,p5cd_ad,34,436714,0.0-6.0-1.1-0.17,f078aa2862041786868ef9f2ad23336df49386eb98fe8259951830bdf7c3dbfd,5f031ce1945c554c8413742c,"[231, 207, 102, 157, 57, 16, 161, 123, 28, 101, 171, 177, 229, 31, 191, 117, 226, 157, 97, 146, 58, 212, 222, 106, 49, 89, 187, 136, 45, 27, 49, 174]",5f182f6ff0709b22657648f9,5f031ce1945c554c8413742c,5f1833e296688011db67eb57,0.22,tomynatorexsan,,,3.0,1.0,1.0,7942.4330401252955,j,405.5669598747045,j,test,1.0,,,
,p5cd_ad,35,440987,0.0-6.0-1.1-0.18,f078aa2862041786868ef9f2ad23336df49386eb98fe8259951830bdf7c3dbfd,5f031ce1945c554c8413742c,"[231, 207, 102, 157, 57, 16, 161, 123, 28, 101, 171, 177, 229, 31, 191, 117, 226, 157, 97, 146, 58, 212, 222, 106, 49, 89, 187, 136, 45, 27, 49, 174]",5f182f6ff0709b22657648f9,5f031ce1945c554c8413742c,5f1833e296688011db67eb57,0.22,tomynatorexsan,,,5.0,0.0,1.0,2708.285030944273,j,403.7149690557271,f,test,0.0,,,
,p5cd_ad,36,443316,0.0-6.0-1.1-0.19,f078aa2862041786868ef9f2ad23336df49386eb98fe8259951830bdf7c3dbfd,5f031ce1945c554c8413742c,"[231, 207, 102, 157, 57, 16, 161, 123, 28, 101, 171, 177, 229, 31, 191, 117, 226, 157, 97, 146, 58, 212, 222, 106, 49, 89, 187, 136, 45, 27, 49, 174]",5f182f6ff0709b22657648f9,5f031ce1945c554c8413742c,5f1833e296688011db67eb57,0.22,tomynatorexsan,,,3.0,0.0,0.0,1129.23696691636,f,35.76303308364004,f,test,1.0,,,
,p5cd_ad,37,461394,0.0-6.0-1.1-0.20,f078aa2862041786868ef9f2ad23336df49386eb98fe8259951830bdf7c3dbfd,5f031ce1945c554c8413742c,"[231, 207, 102, 157, 57, 16, 161, 123, 28, 101, 171, 177, 229, 31, 191, 117, 226, 157, 97, 146, 58, 212, 222, 106, 49, 89, 187, 136, 45, 27, 49, 174]",5f182f6ff0709b22657648f9,5f031ce1945c554c8413742c,5f1833e296688011db67eb57,0.22,tomynatorexsan,,,9.0,0.0,0.0,16448.71605211962,f,465.28394788037986,f,test,1.0,,,
,p5cd_ad,38,464255,0.0-6.0-1.1-0.21,f078aa2862041786868ef9f2ad23336df49386eb98fe8259951830bdf7c3dbfd,5f031ce1945c554c8413742c,"[231, 207, 102, 157, 57, 16, 161, 123, 28, 101, 171, 177, 229, 31, 191, 117, 226, 157, 97, 146, 58, 212, 222, 106, 49, 89, 187, 136, 45, 27, 49, 174]",5f182f6ff0709b22657648f9,5f031ce1945c554c8413742c,5f1833e296688011db67eb57,0.22,tomynatorexsan,,,1.0,0.0,0.0,1201.7380564929917,f,499.26194350700825,f,test,1.0,,,
,p5cd_ad,39,467631,0.0-6.0-1.1-0.22,f078aa2862041786868ef9f2ad23336df49386eb98fe8259951830bdf7c3dbfd,5f031ce1945c554c8413742c,"[231, 207, 102, 157, 57, 16, 161, 123, 28, 101, 171, 177, 229, 31, 191, 117, 226, 157, 97, 146, 58, 212, 222, 106, 49, 89, 187, 136, 45, 27, 49, 174]",5f182f6ff0709b22657648f9,5f031ce1945c554c8413742c,5f1833e296688011db67eb57,0.22,tomynatorexsan,,,9.0,0.0,1.0,1862.7581619722769,j,355.24183802772313,f,test,0.0,,,
,p5cd_ad,40,471439,0.0-6.0-1.1-0.23,f078aa2862041786868ef9f2ad23336df49386eb98fe8259951830bdf7c3dbfd,5f031ce1945c554c8413742c,"[231, 207, 102, 157, 57, 16, 161, 123, 28, 101, 171, 177, 229, 31, 191, 117, 226, 157, 97, 146, 58, 212, 222, 106, 49, 89, 187, 136, 45, 27, 49, 174]",5f182f6ff0709b22657648f9,5f031ce1945c554c8413742c,5f1833e296688011db67eb57,0.22,tomynatorexsan,,,9.0,1.0,0.0,2287.7453495347872,j,355.25465046521276,j,test,1.0,,,
,p5cd_ad,41,475013,0.0-6.0-1.1-0.24,f078aa2862041786868ef9f2ad23336df49386eb98fe8259951830bdf7c3dbfd,5f031ce1945c554c8413742c,"[231, 207, 102, 157, 57, 16, 161, 123, 28, 101, 171, 177, 229, 31, 191, 117, 226, 157, 97, 146, 58, 212, 222, 106, 49, 89, 187, 136, 45, 27, 49, 174]",5f182f6ff0709b22657648f9,5f031ce1945c554c8413742c,5f1833e296688011db67eb57,0.22,tomynatorexsan,,,1.0,1.0,0.0,2104.4172014268115,j,303.5827985731885,j,test,1.0,,,
,p5cd_ad,42,478324,0.0-6.0-1.1-0.25,f078aa2862041786868ef9f2ad23336df49386eb98fe8259951830bdf7c3dbfd,5f031ce1945c554c8413742c,"[231, 207, 102, 157, 57, 16, 161, 123, 28, 101, 171, 177, 229, 31, 191, 117, 226, 157, 97, 146, 58, 212, 222, 106, 49, 89, 187, 136, 45, 27, 49, 174]",5f182f6ff0709b22657648f9,5f031ce1945c554c8413742c,5f1833e296688011db67eb57,0.22,tomynatorexsan,,,3.0,0.0,1.0,1749.3793452875689,f,398.62065471243113,f,test,1.0,,,
,p5cd_ad,43,480488,0.0-6.0-1.1-0.26,f078aa2862041786868ef9f2ad23336df49386eb98fe8259951830bdf7c3dbfd,5f031ce1945c554c8413742c,"[231, 207, 102, 157, 57, 16, 161, 123, 28, 101, 171, 177, 229, 31, 191, 117, 226, 157, 97, 146, 58, 212, 222, 106, 49, 89, 187, 136, 45, 27, 49, 174]",5f182f6ff0709b22657648f9,5f031ce1945c554c8413742c,5f1833e296688011db67eb57,0.22,tomynatorexsan,,,1.0,0.0,1.0,785.2658520722762,f,210.73414792772382,f,test,1.0,,,
,p5cd_ad,44,483014,0.0-6.0-1.1-0.27,f078aa2862041786868ef9f2ad23336df49386eb98fe8259951830bdf7c3dbfd,5f031ce1945c554c8413742c,"[231, 207, 102, 157, 57, 16, 161, 123, 28, 101, 171, 177, 229, 31, 191, 117, 226, 157, 97, 146, 58, 212, 222, 106, 49, 89, 187, 136, 45, 27, 49, 174]",5f182f6ff0709b22657648f9,5f031ce1945c554c8413742c,5f1833e296688011db67eb57,0.22,tomynatorexsan,,,5.0,1.0,1.0,1241.66579084564,f,122.33420915436,j,test,0.0,,,
,p5cd_ad,45,485576,0.0-6.0-1.1-0.28,f078aa2862041786868ef9f2ad23336df49386eb98fe8259951830bdf7c3dbfd,5f031ce1945c554c8413742c,"[231, 207, 102, 157, 57, 16, 161, 123, 28, 101, 171, 177, 229, 31, 191, 117, 226, 157, 97, 146, 58, 212, 222, 106, 49, 89, 187, 136, 45, 27, 49, 174]",5f182f6ff0709b22657648f9,5f031ce1945c554c8413742c,5f1833e296688011db67eb57,0.22,tomynatorexsan,,,5.0,1.0,0.0,1156.3950307406485,f,246.6049692593515,j,test,0.0,,,
,p5cd_ad,46,488569,0.0-6.0-1.1-0.29,f078aa2862041786868ef9f2ad23336df49386eb98fe8259951830bdf7c3dbfd,5f031ce1945c554c8413742c,"[231, 207, 102, 157, 57, 16, 161, 123, 28, 101, 171, 177, 229, 31, 191, 117, 226, 157, 97, 146, 58, 212, 222, 106, 49, 89, 187, 136, 45, 27, 49, 174]",5f182f6ff0709b22657648f9,5f031ce1945c554c8413742c,5f1833e296688011db67eb57,0.22,tomynatorexsan,,,9.0,1.0,1.0,1543.2676553921774,f,285.7323446078226,j,test,0.0,,,
,p5cd_ad,47,491079,0.0-6.0-1.1-0.30,f078aa2862041786868ef9f2ad23336df49386eb98fe8259951830bdf7c3dbfd,5f031ce1945c554c8413742c,"[231, 207, 102, 157, 57, 16, 161, 123, 28, 101, 171, 177, 229, 31, 191, 117, 226, 157, 97, 146, 58, 212, 222, 106, 49, 89, 187, 136, 45, 27, 49, 174]",5f182f6ff0709b22657648f9,5f031ce1945c554c8413742c,5f1833e296688011db67eb57,0.22,tomynatorexsan,,,5.0,0.0,0.0,936.2317973729223,f,415.7682026270777,f,test,1.0,,,
,p5cd_ad,48,493559,0.0-6.0-1.1-0.31,f078aa2862041786868ef9f2ad23336df49386eb98fe8259951830bdf7c3dbfd,5f031ce1945c554c8413742c,"[231, 207, 102, 157, 57, 16, 161, 123, 28, 101, 171, 177, 229, 31, 191, 117, 226, 157, 97, 146, 58, 212, 222, 106, 49, 89, 187, 136, 45, 27, 49, 174]",5f182f6ff0709b22657648f9,5f031ce1945c554c8413742c,5f1833e296688011db67eb57,0.22,tomynatorexsan,,,1.0,1.0,1.0,883.0050006117672,j,433.9949993882328,j,test,1.0,,,
,p5Text,49,703877,0.0-6.0-2.1,f078aa2862041786868ef9f2ad23336df49386eb98fe8259951830bdf7c3dbfd,5f031ce1945c554c8413742c,"[231, 207, 102, 157, 57, 16, 161, 123, 28, 101, 171, 177, 229, 31, 191, 117, 226, 157, 97, 146, 58, 212, 222, 106, 49, 89, 187, 136, 45, 27, 49, 174]",5f182f6ff0709b22657648f9,5f031ce1945c554c8413742c,5f1833e296688011db67eb57,0.22,tomynatorexsan,,,,,,,,,,,,,,
,p5Text,50,707075,0.0-6.0-0.2,f078aa2862041786868ef9f2ad23336df49386eb98fe8259951830bdf7c3dbfd,5f031ce1945c554c8413742c,"[231, 207, 102, 157, 57, 16, 161, 123, 28, 101, 171, 177, 229, 31, 191, 117, 226, 157, 97, 146, 58, 212, 222, 106, 49, 89, 187, 136, 45, 27, 49, 174]",5f182f6ff0709b22657648f9,5f031ce1945c554c8413742c,5f1833e296688011db67eb57,0.22,tomynatorexsan,,,,,,,,,,,,,,
,p5cd_ad,51,712486,0.0-6.0-1.2-0.32,f078aa2862041786868ef9f2ad23336df49386eb98fe8259951830bdf7c3dbfd,5f031ce1945c554c8413742c,"[231, 207, 102, 157, 57, 16, 161, 123, 28, 101, 171, 177, 229, 31, 191, 117, 226, 157, 97, 146, 58, 212, 222, 106, 49, 89, 187, 136, 45, 27, 49, 174]",5f182f6ff0709b22657648f9,5f031ce1945c554c8413742c,5f1833e296688011db67eb57,0.22,tomynatorexsan,,,9.0,0.0,0.0,4006.4911231640726,f,242.50887683592737,f,test,1.0,,,
,p5cd_ad,52,715812,0.0-6.0-1.2-0.33,f078aa2862041786868ef9f2ad23336df49386eb98fe8259951830bdf7c3dbfd,5f031ce1945c554c8413742c,"[231, 207, 102, 157, 57, 16, 161, 123, 28, 101, 171, 177, 229, 31, 191, 117, 226, 157, 97, 146, 58, 212, 222, 106, 49, 89, 187, 136, 45, 27, 49, 174]",5f182f6ff0709b22657648f9,5f031ce1945c554c8413742c,5f1833e296688011db67eb57,0.22,tomynatorexsan,,,5.0,0.0,0.0,1772.2836601370946,f,396.71633986290544,f,test,1.0,,,
,p5cd_ad,53,718890,0.0-6.0-1.2-0.34,f078aa2862041786868ef9f2ad23336df49386eb98fe8259951830bdf7c3dbfd,5f031ce1945c554c8413742c,"[231, 207, 102, 157, 57, 16, 161, 123, 28, 101, 171, 177, 229, 31, 191, 117, 226, 157, 97, 146, 58, 212, 222, 106, 49, 89, 187, 136, 45, 27, 49, 174]",5f182f6ff0709b22657648f9,5f031ce1945c554c8413742c,5f1833e296688011db67eb57,0.22,tomynatorexsan,,,3.0,0.0,1.0,1465.708437222056,j,449.2915627779439,f,test,0.0,,,
,p5cd_ad,54,721086,0.0-6.0-1.2-0.35,f078aa2862041786868ef9f2ad23336df49386eb98fe8259951830bdf7c3dbfd,5f031ce1945c554c8413742c,"[231, 207, 102, 157, 57, 16, 161, 123, 28, 101, 171, 177, 229, 31, 191, 117, 226, 157, 97, 146, 58, 212, 222, 106, 49, 89, 187, 136, 45, 27, 49, 174]",5f182f6ff0709b22657648f9,5f031ce1945c554c8413742c,5f1833e296688011db67eb57,0.22,tomynatorexsan,,,1.0,0.0,0.0,867.06942100171,f,166.93057899829,f,test,1.0,,,
,p5cd_ad,55,723680,0.0-6.0-1.2-0.36,f078aa2862041786868ef9f2ad23336df49386eb98fe8259951830bdf7c3dbfd,5f031ce1945c554c8413742c,"[231, 207, 102, 157, 57, 16, 161, 123, 28, 101, 171, 177, 229, 31, 191, 117, 226, 157, 97, 146, 58, 212, 222, 106, 49, 89, 187, 136, 45, 27, 49, 174]",5f182f6ff0709b22657648f9,5f031ce1945c554c8413742c,5f1833e296688011db67eb57,0.22,tomynatorexsan,,,3.0,0.0,0.0,1399.6464141597971,f,30.353585840202868,f,test,1.0,,,
,p5cd_ad,56,726405,0.0-6.0-1.2-0.37,f078aa2862041786868ef9f2ad23336df49386eb98fe8259951830bdf7c3dbfd,5f031ce1945c554c8413742c,"[231, 207, 102, 157, 57, 16, 161, 123, 28, 101, 171, 177, 229, 31, 191, 117, 226, 157, 97, 146, 58, 212, 222, 106, 49, 89, 187, 136, 45, 27, 49, 174]",5f182f6ff0709b22657648f9,5f031ce1945c554c8413742c,5f1833e296688011db67eb57,0.22,tomynatorexsan,,,5.0,1.0,0.0,1120.827181622386,j,445.172818377614,j,test,1.0,,,
,p5cd_ad,57,728883,0.0-6.0-1.2-0.38,f078aa2862041786868ef9f2ad23336df49386eb98fe8259951830bdf7c3dbfd,5f031ce1945c554c8413742c,"[231, 207, 102, 157, 57, 16, 161, 123, 28, 101, 171, 177, 229, 31, 191, 117, 226, 157, 97, 146, 58, 212, 222, 106, 49, 89, 187, 136, 45, 27, 49, 174]",5f182f6ff0709b22657648f9,5f031ce1945c554c8413742c,5f1833e296688011db67eb57,0.22,tomynatorexsan,,,9.0,1.0,1.0,1001.3332942118868,f,314.6667057881132,j,test,0.0,,,
,p5cd_ad,58,731279,0.0-6.0-1.2-0.39,f078aa2862041786868ef9f2ad23336df49386eb98fe8259951830bdf7c3dbfd,5f031ce1945c554c8413742c,"[231, 207, 102, 157, 57, 16, 161, 123, 28, 101, 171, 177, 229, 31, 191, 117, 226, 157, 97, 146, 58, 212, 222, 106, 49, 89, 187, 136, 45, 27, 49, 174]",5f182f6ff0709b22657648f9,5f031ce1945c554c8413742c,5f1833e296688011db67eb57,0.22,tomynatorexsan,,,5.0,1.0,1.0,1057.96344337333,f,179.03655662667006,j,test,0.0,,,
,p5cd_ad,59,734505,0.0-6.0-1.2-0.40,f078aa2862041786868ef9f2ad23336df49386eb98fe8259951830bdf7c3dbfd,5f031ce1945c554c8413742c,"[231, 207, 102, 157, 57, 16, 161, 123, 28, 101, 171, 177, 229, 31, 191, 117, 226, 157, 97, 146, 58, 212, 222, 106, 49, 89, 187, 136, 45, 27, 49, 174]",5f182f6ff0709b22657648f9,5f031ce1945c554c8413742c,5f1833e296688011db67eb57,0.22,tomynatorexsan,,,5.0,0.0,1.0,1959.6831755563617,f,106.31682444363832,f,test,1.0,,,
,p5cd_ad,60,737482,0.0-6.0-1.2-0.41,f078aa2862041786868ef9f2ad23336df49386eb98fe8259951830bdf7c3dbfd,5f031ce1945c554c8413742c,"[231, 207, 102, 157, 57, 16, 161, 123, 28, 101, 171, 177, 229, 31, 191, 117, 226, 157, 97, 146, 58, 212, 222, 106, 49, 89, 187, 136, 45, 27, 49, 174]",5f182f6ff0709b22657648f9,5f031ce1945c554c8413742c,5f1833e296688011db67eb57,0.22,tomynatorexsan,,,3.0,1.0,1.0,1516.7474614810199,f,295.25253851898015,j,test,0.0,,,
,p5cd_ad,61,740575,0.0-6.0-1.2-0.42,f078aa2862041786868ef9f2ad23336df49386eb98fe8259951830bdf7c3dbfd,5f031ce1945c554c8413742c,"[231, 207, 102, 157, 57, 16, 161, 123, 28, 101, 171, 177, 229, 31, 191, 117, 226, 157, 97, 146, 58, 212, 222, 106, 49, 89, 187, 136, 45, 27, 49, 174]",5f182f6ff0709b22657648f9,5f031ce1945c554c8413742c,5f1833e296688011db67eb57,0.22,tomynatorexsan,,,9.0,0.0,1.0,1651.6727497028187,j,281.3272502971813,f,test,0.0,,,
,p5cd_ad,62,744286,0.0-6.0-1.2-0.43,f078aa2862041786868ef9f2ad23336df49386eb98fe8259951830bdf7c3dbfd,5f031ce1945c554c8413742c,"[231, 207, 102, 157, 57, 16, 161, 123, 28, 101, 171, 177, 229, 31, 191, 117, 226, 157, 97, 146, 58, 212, 222, 106, 49, 89, 187, 136, 45, 27, 49, 174]",5f182f6ff0709b22657648f9,5f031ce1945c554c8413742c,5f1833e296688011db67eb57,0.22,tomynatorexsan,,,1.0,1.0,0.0,2518.70208799839,j,26.297912001609802,j,test,1.0,,,
,p5cd_ad,63,747462,0.0-6.0-1.2-0.44,f078aa2862041786868ef9f2ad23336df49386eb98fe8259951830bdf7c3dbfd,5f031ce1945c554c8413742c,"[231, 207, 102, 157, 57, 16, 161, 123, 28, 101, 171, 177, 229, 31, 191, 117, 226, 157, 97, 146, 58, 212, 222, 106, 49, 89, 187, 136, 45, 27, 49, 174]",5f182f6ff0709b22657648f9,5f031ce1945c554c8413742c,5f1833e296688011db67eb57,0.22,tomynatorexsan,,,1.0,1.0,1.0,1751.8339448049664,j,258.16605519503355,j,test,1.0,,,
,p5cd_ad,64,750720,0.0-6.0-1.2-0.45,f078aa2862041786868ef9f2ad23336df49386eb98fe8259951830bdf7c3dbfd,5f031ce1945c554c8413742c,"[231, 207, 102, 157, 57, 16, 161, 123, 28, 101, 171, 177, 229, 31, 191, 117, 226, 157, 97, 146, 58, 212, 222, 106, 49, 89, 187, 136, 45, 27, 49, 174]",5f182f6ff0709b22657648f9,5f031ce1945c554c8413742c,5f1833e296688011db67eb57,0.22,tomynatorexsan,,,9.0,1.0,0.0,1963.2976111564785,j,128.70238884352148,j,test,1.0,,,
,p5cd_ad,65,753049,0.0-6.0-1.2-0.46,f078aa2862041786868ef9f2ad23336df49386eb98fe8259951830bdf7c3dbfd,5f031ce1945c554c8413742c,"[231, 207, 102, 157, 57, 16, 161, 123, 28, 101, 171, 177, 229, 31, 191, 117, 226, 157, 97, 146, 58, 212, 222, 106, 49, 89, 187, 136, 45, 27, 49, 174]",5f182f6ff0709b22657648f9,5f031ce1945c554c8413742c,5f1833e296688011db67eb57,0.22,tomynatorexsan,,,3.0,1.0,0.0,986.271831725724,j,181.72816827427596,j,test,1.0,,,
,p5cd_ad,66,755228,0.0-6.0-1.2-0.47,f078aa2862041786868ef9f2ad23336df49386eb98fe8259951830bdf7c3dbfd,5f031ce1945c554c8413742c,"[231, 207, 102, 157, 57, 16, 161, 123, 28, 101, 171, 177, 229, 31, 191, 117, 226, 157, 97, 146, 58, 212, 222, 106, 49, 89, 187, 136, 45, 27, 49, 174]",5f182f6ff0709b22657648f9,5f031ce1945c554c8413742c,5f1833e296688011db67eb57,0.22,tomynatorexsan,,,1.0,0.0,1.0,777.9638171056286,f,237.03618289437145,f,test,1.0,,,
,p5Text,67,851941,0.0-6.0-2.2,f078aa2862041786868ef9f2ad23336df49386eb98fe8259951830bdf7c3dbfd,5f031ce1945c554c8413742c,"[231, 207, 102, 157, 57, 16, 161, 123, 28, 101, 171, 177, 229, 31, 191, 117, 226, 157, 97, 146, 58, 212, 222, 106, 49, 89, 187, 136, 45, 27, 49, 174]",5f182f6ff0709b22657648f9,5f031ce1945c554c8413742c,5f1833e296688011db67eb57,0.22,tomynatorexsan,,,,,,,,,,,,,,
,p5Text,68,860141,0.0-6.0-0.3,f078aa2862041786868ef9f2ad23336df49386eb98fe8259951830bdf7c3dbfd,5f031ce1945c554c8413742c,"[231, 207, 102, 157, 57, 16, 161, 123, 28, 101, 171, 177, 229, 31, 191, 117, 226, 157, 97, 146, 58, 212, 222, 106, 49, 89, 187, 136, 45, 27, 49, 174]",5f182f6ff0709b22657648f9,5f031ce1945c554c8413742c,5f1833e296688011db67eb57,0.22,tomynatorexsan,,,,,,,,,,,,,,
,p5cd_ad,69,863461,0.0-6.0-1.3-0.48,f078aa2862041786868ef9f2ad23336df49386eb98fe8259951830bdf7c3dbfd,5f031ce1945c554c8413742c,"[231, 207, 102, 157, 57, 16, 161, 123, 28, 101, 171, 177, 229, 31, 191, 117, 226, 157, 97, 146, 58, 212, 222, 106, 49, 89, 187, 136, 45, 27, 49, 174]",5f182f6ff0709b22657648f9,5f031ce1945c554c8413742c,5f1833e296688011db67eb57,0.22,tomynatorexsan,,,3.0,1.0,0.0,1993.1246417518705,j,162.8753582481295,j,test,1.0,,,
,p5cd_ad,70,867436,0.0-6.0-1.3-0.49,f078aa2862041786868ef9f2ad23336df49386eb98fe8259951830bdf7c3dbfd,5f031ce1945c554c8413742c,"[231, 207, 102, 157, 57, 16, 161, 123, 28, 101, 171, 177, 229, 31, 191, 117, 226, 157, 97, 146, 58, 212, 222, 106, 49, 89, 187, 136, 45, 27, 49, 174]",5f182f6ff0709b22657648f9,5f031ce1945c554c8413742c,5f1833e296688011db67eb57,0.22,tomynatorexsan,,,1.0,0.0,0.0,2505.901572789997,f,312.09842721000314,f,test,1.0,,,
,p5cd_ad,71,870046,0.0-6.0-1.3-0.50,f078aa2862041786868ef9f2ad23336df49386eb98fe8259951830bdf7c3dbfd,5f031ce1945c554c8413742c,"[231, 207, 102, 157, 57, 16, 161, 123, 28, 101, 171, 177, 229, 31, 191, 117, 226, 157, 97, 146, 58, 212, 222, 106, 49, 89, 187, 136, 45, 27, 49, 174]",5f182f6ff0709b22657648f9,5f031ce1945c554c8413742c,5f1833e296688011db67eb57,0.22,tomynatorexsan,,,9.0,1.0,1.0,1315.5557754253969,f,130.44422457460314,j,test,0.0,,,
,p5cd_ad,72,872575,0.0-6.0-1.3-0.51,f078aa2862041786868ef9f2ad23336df49386eb98fe8259951830bdf7c3dbfd,5f031ce1945c554c8413742c,"[231, 207, 102, 157, 57, 16, 161, 123, 28, 101, 171, 177, 229, 31, 191, 117, 226, 157, 97, 146, 58, 212, 222, 106, 49, 89, 187, 136, 45, 27, 49, 174]",5f182f6ff0709b22657648f9,5f031ce1945c554c8413742c,5f1833e296688011db67eb57,0.22,tomynatorexsan,,,3.0,0.0,0.0,1313.8709030831233,f,59.12909691687673,f,test,1.0,,,
,p5cd_ad,73,876699,0.0-6.0-1.3-0.52,f078aa2862041786868ef9f2ad23336df49386eb98fe8259951830bdf7c3dbfd,5f031ce1945c554c8413742c,"[231, 207, 102, 157, 57, 16, 161, 123, 28, 101, 171, 177, 229, 31, 191, 117, 226, 157, 97, 146, 58, 212, 222, 106, 49, 89, 187, 136, 45, 27, 49, 174]",5f182f6ff0709b22657648f9,5f031ce1945c554c8413742c,5f1833e296688011db67eb57,0.22,tomynatorexsan,,,3.0,1.0,1.0,2504.7006433447823,j,461.2993566552177,j,test,1.0,,,
,p5cd_ad,74,882985,0.0-6.0-1.3-0.53,f078aa2862041786868ef9f2ad23336df49386eb98fe8259951830bdf7c3dbfd,5f031ce1945c554c8413742c,"[231, 207, 102, 157, 57, 16, 161, 123, 28, 101, 171, 177, 229, 31, 191, 117, 226, 157, 97, 146, 58, 212, 222, 106, 49, 89, 187, 136, 45, 27, 49, 174]",5f182f6ff0709b22657648f9,5f031ce1945c554c8413742c,5f1833e296688011db67eb57,0.22,tomynatorexsan,,,5.0,0.0,0.0,4868.468260561116,f,250.53173943888396,f,test,1.0,,,
,p5cd_ad,75,886212,0.0-6.0-1.3-0.54,f078aa2862041786868ef9f2ad23336df49386eb98fe8259951830bdf7c3dbfd,5f031ce1945c554c8413742c,"[231, 207, 102, 157, 57, 16, 161, 123, 28, 101, 171, 177, 229, 31, 191, 117, 226, 157, 97, 146, 58, 212, 222, 106, 49, 89, 187, 136, 45, 27, 49, 174]",5f182f6ff0709b22657648f9,5f031ce1945c554c8413742c,5f1833e296688011db67eb57,0.22,tomynatorexsan,,,9.0,0.0,0.0,1886.0242012497038,f,180.97579875029624,f,test,1.0,,,
,p5cd_ad,76,893994,0.0-6.0-1.3-0.55,f078aa2862041786868ef9f2ad23336df49386eb98fe8259951830bdf7c3dbfd,5f031ce1945c554c8413742c,"[231, 207, 102, 157, 57, 16, 161, 123, 28, 101, 171, 177, 229, 31, 191, 117, 226, 157, 97, 146, 58, 212, 222, 106, 49, 89, 187, 136, 45, 27, 49, 174]",5f182f6ff0709b22657648f9,5f031ce1945c554c8413742c,5f1833e296688011db67eb57,0.22,tomynatorexsan,,,9.0,1.0,0.0,6435.3756840145215,f,185.62431598547846,j,test,0.0,,,
,p5cd_ad,77,897338,0.0-6.0-1.3-0.56,f078aa2862041786868ef9f2ad23336df49386eb98fe8259951830bdf7c3dbfd,5f031ce1945c554c8413742c,"[231, 207, 102, 157, 57, 16, 161, 123, 28, 101, 171, 177, 229, 31, 191, 117, 226, 157, 97, 146, 58, 212, 222, 106, 49, 89, 187, 136, 45, 27, 49, 174]",5f182f6ff0709b22657648f9,5f031ce1945c554c8413742c,5f1833e296688011db67eb57,0.22,tomynatorexsan,,,5.0,0.0,1.0,1856.682709065266,f,322.31729093473405,f,test,1.0,,,
,p5cd_ad,78,899600,0.0-6.0-1.3-0.57,f078aa2862041786868ef9f2ad23336df49386eb98fe8259951830bdf7c3dbfd,5f031ce1945c554c8413742c,"[231, 207, 102, 157, 57, 16, 161, 123, 28, 101, 171, 177, 229, 31, 191, 117, 226, 157, 97, 146, 58, 212, 222, 106, 49, 89, 187, 136, 45, 27, 49, 174]",5f182f6ff0709b22657648f9,5f031ce1945c554c8413742c,5f1833e296688011db67eb57,0.22,tomynatorexsan,,,3.0,0.0,1.0,760.4332553045824,j,333.5667446954176,f,test,0.0,,,
,p5cd_ad,79,901762,0.0-6.0-1.3-0.58,f078aa2862041786868ef9f2ad23336df49386eb98fe8259951830bdf7c3dbfd,5f031ce1945c554c8413742c,"[231, 207, 102, 157, 57, 16, 161, 123, 28, 101, 171, 177, 229, 31, 191, 117, 226, 157, 97, 146, 58, 212, 222, 106, 49, 89, 187, 136, 45, 27, 49, 174]",5f182f6ff0709b22657648f9,5f031ce1945c554c8413742c,5f1833e296688011db67eb57,0.22,tomynatorexsan,,,9.0,0.0,1.0,1005.9768324196339,f,0.023167580366134,f,test,1.0,,,
,p5cd_ad,80,903708,0.0-6.0-1.3-0.59,f078aa2862041786868ef9f2ad23336df49386eb98fe8259951830bdf7c3dbfd,5f031ce1945c554c8413742c,"[231, 207, 102, 157, 57, 16, 161, 123, 28, 101, 171, 177, 229, 31, 191, 117, 226, 157, 97, 146, 58, 212, 222, 106, 49, 89, 187, 136, 45, 27, 49, 174]",5f182f6ff0709b22657648f9,5f031ce1945c554c8413742c,5f1833e296688011db67eb57,0.22,tomynatorexsan,,,1.0,1.0,0.0,656.2181516410783,j,133.7818483589217,j,test,1.0,,,
,p5cd_ad,81,905687,0.0-6.0-1.3-0.60,f078aa2862041786868ef9f2ad23336df49386eb98fe8259951830bdf7c3dbfd,5f031ce1945c554c8413742c,"[231, 207, 102, 157, 57, 16, 161, 123, 28, 101, 171, 177, 229, 31, 191, 117, 226, 157, 97, 146, 58, 212, 222, 106, 49, 89, 187, 136, 45, 27, 49, 174]",5f182f6ff0709b22657648f9,5f031ce1945c554c8413742c,5f1833e296688011db67eb57,0.22,tomynatorexsan,,,1.0,1.0,1.0,605.9215763686225,j,208.07842363137752,j,test,1.0,,,
,p5cd_ad,82,907583,0.0-6.0-1.3-0.61,f078aa2862041786868ef9f2ad23336df49386eb98fe8259951830bdf7c3dbfd,5f031ce1945c554c8413742c,"[231, 207, 102, 157, 57, 16, 161, 123, 28, 101, 171, 177, 229, 31, 191, 117, 226, 157, 97, 146, 58, 212, 222, 106, 49, 89, 187, 136, 45, 27, 49, 174]",5f182f6ff0709b22657648f9,5f031ce1945c554c8413742c,5f1833e296688011db67eb57,0.22,tomynatorexsan,,,5.0,1.0,0.0,680.422844780609,j,48.57715521939099,j,test,1.0,,,
,p5cd_ad,83,909595,0.0-6.0-1.3-0.62,f078aa2862041786868ef9f2ad23336df49386eb98fe8259951830bdf7c3dbfd,5f031ce1945c554c8413742c,"[231, 207, 102, 157, 57, 16, 161, 123, 28, 101, 171, 177, 229, 31, 191, 117, 226, 157, 97, 146, 58, 212, 222, 106, 49, 89, 187, 136, 45, 27, 49, 174]",5f182f6ff0709b22657648f9,5f031ce1945c554c8413742c,5f1833e296688011db67eb57,0.22,tomynatorexsan,,,1.0,0.0,1.0,557.463250124827,f,290.536749875173,f,test,1.0,,,
,p5cd_ad,84,912272,0.0-6.0-1.3-0.63,f078aa2862041786868ef9f2ad23336df49386eb98fe8259951830bdf7c3dbfd,5f031ce1945c554c8413742c,"[231, 207, 102, 157, 57, 16, 161, 123, 28, 101, 171, 177, 229, 31, 191, 117, 226, 157, 97, 146, 58, 212, 222, 106, 49, 89, 187, 136, 45, 27, 49, 174]",5f182f6ff0709b22657648f9,5f031ce1945c554c8413742c,5f1833e296688011db67eb57,0.22,tomynatorexsan,,,5.0,1.0,1.0,1253.661510663107,f,258.33848933689296,j,test,0.0,,,
,p5Text,85,1120371,0.0-6.0-2.3,f078aa2862041786868ef9f2ad23336df49386eb98fe8259951830bdf7c3dbfd,5f031ce1945c554c8413742c,"[231, 207, 102, 157, 57, 16, 161, 123, 28, 101, 171, 177, 229, 31, 191, 117, 226, 157, 97, 146, 58, 212, 222, 106, 49, 89, 187, 136, 45, 27, 49, 174]",5f182f6ff0709b22657648f9,5f031ce1945c554c8413742c,5f1833e296688011db67eb57,0.22,tomynatorexsan,,,,,,,,,,,,,,
,survey-text,86,1235143,0.0-7.0,f078aa2862041786868ef9f2ad23336df49386eb98fe8259951830bdf7c3dbfd,5f031ce1945c554c8413742c,"[231, 207, 102, 157, 57, 16, 161, 123, 28, 101, 171, 177, 229, 31, 191, 117, 226, 157, 97, 146, 58, 212, 222, 106, 49, 89, 187, 136, 45, 27, 49, 174]",5f182f6ff0709b22657648f9,5f031ce1945c554c8413742c,5f1833e296688011db67eb57,0.22,tomynatorexsan,114760.0,,,,,,,,,,,,,"{""worker_comments"":"" Overall it was a novel experience. It'd been a lot more fun if there were more items per trial.""}"
,p5Text,87,1244302,0.0-8.0,f078aa2862041786868ef9f2ad23336df49386eb98fe8259951830bdf7c3dbfd,5f031ce1945c554c8413742c,"[231, 207, 102, 157, 57, 16, 161, 123, 28, 101, 171, 177, 229, 31, 191, 117, 226, 157, 97, 146, 58, 212, 222, 106, 49, 89, 187, 136, 45, 27, 49, 174]",5f182f6ff0709b22657648f9,5f031ce1945c554c8413742c,5f1833e296688011db67eb57,0.22,tomynatorexsan,,,,,,,,,,,,,,
1.0,fullscreen,0,2401,0.0-0.0,f078aa2862041786868ef9f2ad23336df49386eb98fe8259951830bdf7c3dbfd,5df7ad1605620553d327a029,"[224, 155, 32, 248, 170, 169, 71, 238, 17, 176, 74, 28, 85, 124, 205, 28, 126, 124, 43, 102, 50, 177, 31, 11, 81, 83, 54, 224, 107, 109, 74, 82]",5f182f6ff0709b22657648f9,5df7ad1605620553d327a029,5f1833b3dd6389107b598cfe,0.2,jam,,,,,,,,,,,,,,
,external-html,1,8047,0.0-1.0,f078aa2862041786868ef9f2ad23336df49386eb98fe8259951830bdf7c3dbfd,5df7ad1605620553d327a029,"[224, 155, 32, 248, 170, 169, 71, 238, 17, 176, 74, 28, 85, 124, 205, 28, 126, 124, 43, 102, 50, 177, 31, 11, 81, 83, 54, 224, 107, 109, 74, 82]",5f182f6ff0709b22657648f9,5df7ad1605620553d327a029,5f1833b3dd6389107b598cfe,0.2,jam,5542.0499999891035,nickname.html,,,,,,,,,,,,
,p5Text,2,10579,0.0-2.0,f078aa2862041786868ef9f2ad23336df49386eb98fe8259951830bdf7c3dbfd,5df7ad1605620553d327a029,"[224, 155, 32, 248, 170, 169, 71, 238, 17, 176, 74, 28, 85, 124, 205, 28, 126, 124, 43, 102, 50, 177, 31, 11, 81, 83, 54, 224, 107, 109, 74, 82]",5f182f6ff0709b22657648f9,5df7ad1605620553d327a029,5f1833b3dd6389107b598cfe,0.2,jam,,,,,,,,,,,,,,
,p5Text,3,28669,0.0-3.0-0.0,f078aa2862041786868ef9f2ad23336df49386eb98fe8259951830bdf7c3dbfd,5df7ad1605620553d327a029,"[224, 155, 32, 248, 170, 169, 71, 238, 17, 176, 74, 28, 85, 124, 205, 28, 126, 124, 43, 102, 50, 177, 31, 11, 81, 83, 54, 224, 107, 109, 74, 82]",5f182f6ff0709b22657648f9,5df7ad1605620553d327a029,5f1833b3dd6389107b598cfe,0.2,jam,,,,,,,,,,,,,,
,p5cd_ad,4,32185,0.0-3.0-1.0-0.0,f078aa2862041786868ef9f2ad23336df49386eb98fe8259951830bdf7c3dbfd,5df7ad1605620553d327a029,"[224, 155, 32, 248, 170, 169, 71, 238, 17, 176, 74, 28, 85, 124, 205, 28, 126, 124, 43, 102, 50, 177, 31, 11, 81, 83, 54, 224, 107, 109, 74, 82]",5f182f6ff0709b22657648f9,5df7ad1605620553d327a029,5f1833b3dd6389107b598cfe,0.2,jam,,,3.0,0.0,0.0,1744.2882392788306,j,266.1117607494816,f,practice,0.0,,,
,html-keyboard-response,5,33692,0.0-3.0-1.0-1.0,f078aa2862041786868ef9f2ad23336df49386eb98fe8259951830bdf7c3dbfd,5df7ad1605620553d327a029,"[224, 155, 32, 248, 170, 169, 71, 238, 17, 176, 74, 28, 85, 124, 205, 28, 126, 124, 43, 102, 50, 177, 31, 11, 81, 83, 54, 224, 107, 109, 74, 82]",5f182f6ff0709b22657648f9,5df7ad1605620553d327a029,5f1833b3dd6389107b598cfe,0.2,jam,,,,,,,,,,,,"<div style=""width:150px;height:56px;border:0px;font-size:30px;text-align:center"">wrong.</div>",,
,p5cd_ad,6,36987,0.0-3.0-1.0-0.1,f078aa2862041786868ef9f2ad23336df49386eb98fe8259951830bdf7c3dbfd,5df7ad1605620553d327a029,"[224, 155, 32, 248, 170, 169, 71, 238, 17, 176, 74, 28, 85, 124, 205, 28, 126, 124, 43, 102, 50, 177, 31, 11, 81, 83, 54, 224, 107, 109, 74, 82]",5f182f6ff0709b22657648f9,5df7ad1605620553d327a029,5f1833b3dd6389107b598cfe,0.2,jam,,,3.0,1.0,1.0,1397.6428445312195,j,388.93715548329055,j,practice,1.0,,,
,html-keyboard-response,7,37988,0.0-3.0-1.0-1.1,f078aa2862041786868ef9f2ad23336df49386eb98fe8259951830bdf7c3dbfd,5df7ad1605620553d327a029,"[224, 155, 32, 248, 170, 169, 71, 238, 17, 176, 74, 28, 85, 124, 205, 28, 126, 124, 43, 102, 50, 177, 31, 11, 81, 83, 54, 224, 107, 109, 74, 82]",5f182f6ff0709b22657648f9,5df7ad1605620553d327a029,5f1833b3dd6389107b598cfe,0.2,jam,,,,,,,,,,,,"<div style=""width:150px;height:56px;font-size:30px;text-align:center;"">correct!</div>",,
,p5cd_ad,8,41499,0.0-3.0-1.0-0.2,f078aa2862041786868ef9f2ad23336df49386eb98fe8259951830bdf7c3dbfd,5df7ad1605620553d327a029,"[224, 155, 32, 248, 170, 169, 71, 238, 17, 176, 74, 28, 85, 124, 205, 28, 126, 124, 43, 102, 50, 177, 31, 11, 81, 83, 54, 224, 107, 109, 74, 82]",5f182f6ff0709b22657648f9,5df7ad1605620553d327a029,5f1833b3dd6389107b598cfe,0.2,jam,,,3.0,0.0,1.0,1725.6121595855802,f,270.5978404264897,f,practice,1.0,,,
,html-keyboard-response,9,42503,0.0-3.0-1.0-1.2,f078aa2862041786868ef9f2ad23336df49386eb98fe8259951830bdf7c3dbfd,5df7ad1605620553d327a029,"[224, 155, 32, 248, 170, 169, 71, 238, 17, 176, 74, 28, 85, 124, 205, 28, 126, 124, 43, 102, 50, 177, 31, 11, 81, 83, 54, 224, 107, 109, 74, 82]",5f182f6ff0709b22657648f9,5df7ad1605620553d327a029,5f1833b3dd6389107b598cfe,0.2,jam,,,,,,,,,,,,"<div style=""width:150px;height:56px;font-size:30px;text-align:center;"">correct!</div>",,
,p5cd_ad,10,45727,0.0-3.0-1.0-0.3,f078aa2862041786868ef9f2ad23336df49386eb98fe8259951830bdf7c3dbfd,5df7ad1605620553d327a029,"[224, 155, 32, 248, 170, 169, 71, 238, 17, 176, 74, 28, 85, 124, 205, 28, 126, 124, 43, 102, 50, 177, 31, 11, 81, 83, 54, 224, 107, 109, 74, 82]",5f182f6ff0709b22657648f9,5df7ad1605620553d327a029,5f1833b3dd6389107b598cfe,0.2,jam,,,3.0,1.0,0.0,1443.3030180516653,j,264.09198192413896,j,practice,1.0,,,
,html-keyboard-response,11,46729,0.0-3.0-1.0-1.3,f078aa2862041786868ef9f2ad23336df49386eb98fe8259951830bdf7c3dbfd,5df7ad1605620553d327a029,"[224, 155, 32, 248, 170, 169, 71, 238, 17, 176, 74, 28, 85, 124, 205, 28, 126, 124, 43, 102, 50, 177, 31, 11, 81, 83, 54, 224, 107, 109, 74, 82]",5f182f6ff0709b22657648f9,5df7ad1605620553d327a029,5f1833b3dd6389107b598cfe,0.2,jam,,,,,,,,,,,,"<div style=""width:150px;height:56px;font-size:30px;text-align:center;"">correct!</div>",,
,p5Text,12,52188,0.0-4.0,f078aa2862041786868ef9f2ad23336df49386eb98fe8259951830bdf7c3dbfd,5df7ad1605620553d327a029,"[224, 155, 32, 248, 170, 169, 71, 238, 17, 176, 74, 28, 85, 124, 205, 28, 126, 124, 43, 102, 50, 177, 31, 11, 81, 83, 54, 224, 107, 109, 74, 82]",5f182f6ff0709b22657648f9,5df7ad1605620553d327a029,5f1833b3dd6389107b598cfe,0.2,jam,,,,,,,,,,,,,,
,p5Text,13,66275,0.0-5.0,f078aa2862041786868ef9f2ad23336df49386eb98fe8259951830bdf7c3dbfd,5df7ad1605620553d327a029,"[224, 155, 32, 248, 170, 169, 71, 238, 17, 176, 74, 28, 85, 124, 205, 28, 126, 124, 43, 102, 50, 177, 31, 11, 81, 83, 54, 224, 107, 109, 74, 82]",5f182f6ff0709b22657648f9,5df7ad1605620553d327a029,5f1833b3dd6389107b598cfe,0.2,jam,,,,,,,,,,,,,,
,p5Text,14,73543,0.0-6.0-0.0,f078aa2862041786868ef9f2ad23336df49386eb98fe8259951830bdf7c3dbfd,5df7ad1605620553d327a029,"[224, 155, 32, 248, 170, 169, 71, 238, 17, 176, 74, 28, 85, 124, 205, 28, 126, 124, 43, 102, 50, 177, 31, 11, 81, 83, 54, 224, 107, 109, 74, 82]",5f182f6ff0709b22657648f9,5df7ad1605620553d327a029,5f1833b3dd6389107b598cfe,0.2,jam,,,,,,,,,,,,,,
,p5cd_ad,15,76692,0.0-6.0-1.0-0.0,f078aa2862041786868ef9f2ad23336df49386eb98fe8259951830bdf7c3dbfd,5df7ad1605620553d327a029,"[224, 155, 32, 248, 170, 169, 71, 238, 17, 176, 74, 28, 85, 124, 205, 28, 126, 124, 43, 102, 50, 177, 31, 11, 81, 83, 54, 224, 107, 109, 74, 82]",5f182f6ff0709b22657648f9,5df7ad1605620553d327a029,5f1833b3dd6389107b598cfe,0.2,jam,,,5.0,1.0,0.0,1970.600706199184,f,11.049293796531856,j,test,0.0,,,
,p5cd_ad,16,79000,0.0-6.0-1.0-0.1,f078aa2862041786868ef9f2ad23336df49386eb98fe8259951830bdf7c3dbfd,5df7ad1605620553d327a029,"[224, 155, 32, 248, 170, 169, 71, 238, 17, 176, 74, 28, 85, 124, 205, 28, 126, 124, 43, 102, 50, 177, 31, 11, 81, 83, 54, 224, 107, 109, 74, 82]",5f182f6ff0709b22657648f9,5df7ad1605620553d327a029,5f1833b3dd6389107b598cfe,0.2,jam,,,5.0,1.0,1.0,843.7330373795703,j,297.5419625872746,j,test,1.0,,,
,p5cd_ad,17,81356,0.0-6.0-1.0-0.2,f078aa2862041786868ef9f2ad23336df49386eb98fe8259951830bdf7c3dbfd,5df7ad1605620553d327a029,"[224, 155, 32, 248, 170, 169, 71, 238, 17, 176, 74, 28, 85, 124, 205, 28, 126, 124, 43, 102, 50, 177, 31, 11, 81, 83, 54, 224, 107, 109, 74, 82]",5f182f6ff0709b22657648f9,5df7ad1605620553d327a029,5f1833b3dd6389107b598cfe,0.2,jam,,,3.0,0.0,0.0,863.9646648894995,j,335.5353351216763,f,test,0.0,,,
,p5cd_ad,18,84180,0.0-6.0-1.0-0.3,f078aa2862041786868ef9f2ad23336df49386eb98fe8259951830bdf7c3dbfd,5df7ad1605620553d327a029,"[224, 155, 32, 248, 170, 169, 71, 238, 17, 176, 74, 28, 85, 124, 205, 28, 126, 124, 43, 102, 50, 177, 31, 11, 81, 83, 54, 224, 107, 109, 74, 82]",5f182f6ff0709b22657648f9,5df7ad1605620553d327a029,5f1833b3dd6389107b598cfe,0.2,jam,,,9.0,0.0,0.0,1268.3711047517136,f,398.2388952281326,f,test,1.0,,,
,p5cd_ad,19,86671,0.0-6.0-1.0-0.4,f078aa2862041786868ef9f2ad23336df49386eb98fe8259951830bdf7c3dbfd,5df7ad1605620553d327a029,"[224, 155, 32, 248, 170, 169, 71, 238, 17, 176, 74, 28, 85, 124, 205, 28, 126, 124, 43, 102, 50, 177, 31, 11, 81, 83, 54, 224, 107, 109, 74, 82]",5f182f6ff0709b22657648f9,5df7ad1605620553d327a029,5f1833b3dd6389107b598cfe,0.2,jam,,,1.0,0.0,1.0,870.4925169236958,f,465.1824830798432,f,test,1.0,,,
,p5cd_ad,20,88843,0.0-6.0-1.0-0.5,f078aa2862041786868ef9f2ad23336df49386eb98fe8259951830bdf7c3dbfd,5df7ad1605620553d327a029,"[224, 155, 32, 248, 170, 169, 71, 238, 17, 176, 74, 28, 85, 124, 205, 28, 126, 124, 43, 102, 50, 177, 31, 11, 81, 83, 54, 224, 107, 109, 74, 82]",5f182f6ff0709b22657648f9,5df7ad1605620553d327a029,5f1833b3dd6389107b598cfe,0.2,jam,,,1.0,1.0,0.0,743.2948804576881,j,274.8751195613295,j,test,1.0,,,
,p5cd_ad,21,91918,0.0-6.0-1.0-0.6,f078aa2862041786868ef9f2ad23336df49386eb98fe8259951830bdf7c3dbfd,5df7ad1605620553d327a029,"[224, 155, 32, 248, 170, 169, 71, 238, 17, 176, 74, 28, 85, 124, 205, 28, 126, 124, 43, 102, 50, 177, 31, 11, 81, 83, 54, 224, 107, 109, 74, 82]",5f182f6ff0709b22657648f9,5df7ad1605620553d327a029,5f1833b3dd6389107b598cfe,0.2,jam,,,1.0,1.0,1.0,1425.9092495427467,j,494.5257504004985,j,test,1.0,,,
,p5cd_ad,22,94925,0.0-6.0-1.0-0.7,f078aa2862041786868ef9f2ad23336df49386eb98fe8259951830bdf7c3dbfd,5df7ad1605620553d327a029,"[224, 155, 32, 248, 170, 169, 71, 238, 17, 176, 74, 28, 85, 124, 205, 28, 126, 124, 43, 102, 50, 177, 31, 11, 81, 83, 54, 224, 107, 109, 74, 82]",5f182f6ff0709b22657648f9,5df7ad1605620553d327a029,5f1833b3dd6389107b598cfe,0.2,jam,,,3.0,1.0,1.0,1374.1730093839578,f,470.16699064988643,j,test,0.0,,,
,p5cd_ad,23,97568,0.0-6.0-1.0-0.8,f078aa2862041786868ef9f2ad23336df49386eb98fe8259951830bdf7c3dbfd,5df7ad1605620553d327a029,"[224, 155, 32, 248, 170, 169, 71, 238, 17, 176, 74, 28, 85, 124, 205, 28, 126, 124, 43, 102, 50, 177, 31, 11, 81, 83, 54, 224, 107, 109, 74, 82]",5f182f6ff0709b22657648f9,5df7ad1605620553d327a029,5f1833b3dd6389107b598cfe,0.2,jam,,,5.0,0.0,1.0,1006.436642864719,f,467.9483571089804,f,test,1.0,,,
,p5cd_ad,24,100759,0.0-6.0-1.0-0.9,f078aa2862041786868ef9f2ad23336df49386eb98fe8259951830bdf7c3dbfd,5df7ad1605620553d327a029,"[224, 155, 32, 248, 170, 169, 71, 238, 17, 176, 74, 28, 85, 124, 205, 28, 126, 124, 43, 102, 50, 177, 31, 11, 81, 83, 54, 224, 107, 109, 74, 82]",5f182f6ff0709b22657648f9,5df7ad1605620553d327a029,5f1833b3dd6389107b598cfe,0.2,jam,,,9.0,1.0,1.0,1527.412589022424,j,498.8424109760672,j,test,1.0,,,
,p5cd_ad,25,102915,0.0-6.0-1.0-0.10,f078aa2862041786868ef9f2ad23336df49386eb98fe8259951830bdf7c3dbfd,5df7ad1605620553d327a029,"[224, 155, 32, 248, 170, 169, 71, 238, 17, 176, 74, 28, 85, 124, 205, 28, 126, 124, 43, 102, 50, 177, 31, 11, 81, 83, 54, 224, 107, 109, 74, 82]",5f182f6ff0709b22657648f9,5df7ad1605620553d327a029,5f1833b3dd6389107b598cfe,0.2,jam,,,1.0,0.0,0.0,515.0303639471531,j,481.9996360456571,f,test,0.0,,,
,p5cd_ad,26,105823,0.0-6.0-1.0-0.11,f078aa2862041786868ef9f2ad23336df49386eb98fe8259951830bdf7c3dbfd,5df7ad1605620553d327a029,"[224, 155, 32, 248, 170, 169, 71, 238, 17, 176, 74, 28, 85, 124, 205, 28, 126, 124, 43, 102, 50, 177, 31, 11, 81, 83, 54, 224, 107, 109, 74, 82]",5f182f6ff0709b22657648f9,5df7ad1605620553d327a029,5f1833b3dd6389107b598cfe,0.2,jam,,,3.0,0.0,1.0,1244.7451718267985,f,496.5448281727731,f,test,1.0,,,
,p5cd_ad,27,108463,0.0-6.0-1.0-0.12,f078aa2862041786868ef9f2ad23336df49386eb98fe8259951830bdf7c3dbfd,5df7ad1605620553d327a029,"[224, 155, 32, 248, 170, 169, 71, 238, 17, 176, 74, 28, 85, 124, 205, 28, 126, 124, 43, 102, 50, 177, 31, 11, 81, 83, 54, 224, 107, 109, 74, 82]",5f182f6ff0709b22657648f9,5df7ad1605620553d327a029,5f1833b3dd6389107b598cfe,0.2,jam,,,5.0,0.0,0.0,1315.761752333492,f,163.4382476331666,f,test,1.0,,,
,p5cd_ad,28,111372,0.0-6.0-1.0-0.13,f078aa2862041786868ef9f2ad23336df49386eb98fe8259951830bdf7c3dbfd,5df7ad1605620553d327a029,"[224, 155, 32, 248, 170, 169, 71, 238, 17, 176, 74, 28, 85, 124, 205, 28, 126, 124, 43, 102, 50, 177, 31, 11, 81, 83, 54, 224, 107, 109, 74, 82]",5f182f6ff0709b22657648f9,5df7ad1605620553d327a029,5f1833b3dd6389107b598cfe,0.2,jam,,,3.0,1.0,0.0,1371.995263057761,f,383.1847369438037,j,test,0.0,,,
,p5cd_ad,29,113409,0.0-6.0-1.0-0.14,f078aa2862041786868ef9f2ad23336df49386eb98fe8259951830bdf7c3dbfd,5df7ad1605620553d327a029,"[224, 155, 32, 248, 170, 169, 71, 238, 17, 176, 74, 28, 85, 124, 205, 28, 126, 124, 43, 102, 50, 177, 31, 11, 81, 83, 54, 224, 107, 109, 74, 82]",5f182f6ff0709b22657648f9,5df7ad1605620553d327a029,5f1833b3dd6389107b598cfe,0.2,jam,,,9.0,1.0,0.0,867.3370094271377,j,6.422990583814681,j,test,1.0,,,
,p5cd_ad,30,116233,0.0-6.0-1.0-0.15,f078aa2862041786868ef9f2ad23336df49386eb98fe8259951830bdf7c3dbfd,5df7ad1605620553d327a029,"[224, 155, 32, 248, 170, 169, 71, 238, 17, 176, 74, 28, 85, 124, 205, 28, 126, 124, 43, 102, 50, 177, 31, 11, 81, 83, 54, 224, 107, 109, 74, 82]",5f182f6ff0709b22657648f9,5df7ad1605620553d327a029,5f1833b3dd6389107b598cfe,0.2,jam,,,9.0,0.0,1.0,1589.7839381010272,f,78.18606193177402,f,test,1.0,,,
,p5Text,31,143837,0.0-6.0-2.0,f078aa2862041786868ef9f2ad23336df49386eb98fe8259951830bdf7c3dbfd,5df7ad1605620553d327a029,"[224, 155, 32, 248, 170, 169, 71, 238, 17, 176, 74, 28, 85, 124, 205, 28, 126, 124, 43, 102, 50, 177, 31, 11, 81, 83, 54, 224, 107, 109, 74, 82]",5f182f6ff0709b22657648f9,5df7ad1605620553d327a029,5f1833b3dd6389107b598cfe,0.2,jam,,,,,,,,,,,,,,
,p5Text,32,146728,0.0-6.0-0.1,f078aa2862041786868ef9f2ad23336df49386eb98fe8259951830bdf7c3dbfd,5df7ad1605620553d327a029,"[224, 155, 32, 248, 170, 169, 71, 238, 17, 176, 74, 28, 85, 124, 205, 28, 126, 124, 43, 102, 50, 177, 31, 11, 81, 83, 54, 224, 107, 109, 74, 82]",5f182f6ff0709b22657648f9,5df7ad1605620553d327a029,5f1833b3dd6389107b598cfe,0.2,jam,,,,,,,,,,,,,,
,p5cd_ad,33,149659,0.0-6.0-1.1-0.16,f078aa2862041786868ef9f2ad23336df49386eb98fe8259951830bdf7c3dbfd,5df7ad1605620553d327a029,"[224, 155, 32, 248, 170, 169, 71, 238, 17, 176, 74, 28, 85, 124, 205, 28, 126, 124, 43, 102, 50, 177, 31, 11, 81, 83, 54, 224, 107, 109, 74, 82]",5f182f6ff0709b22657648f9,5df7ad1605620553d327a029,5f1833b3dd6389107b598cfe,0.2,jam,,,5.0,0.0,1.0,1404.5591461122967,j,360.3208538843319,f,test,0.0,,,
,p5cd_ad,34,151797,0.0-6.0-1.1-0.17,f078aa2862041786868ef9f2ad23336df49386eb98fe8259951830bdf7c3dbfd,5df7ad1605620553d327a029,"[224, 155, 32, 248, 170, 169, 71, 238, 17, 176, 74, 28, 85, 124, 205, 28, 126, 124, 43, 102, 50, 177, 31, 11, 81, 83, 54, 224, 107, 109, 74, 82]",5f182f6ff0709b22657648f9,5df7ad1605620553d327a029,5f1833b3dd6389107b598cfe,0.2,jam,,,1.0,1.0,0.0,557.8645118745044,f,426.4304881216958,j,test,0.0,,,
,p5cd_ad,35,156292,0.0-6.0-1.1-0.18,f078aa2862041786868ef9f2ad23336df49386eb98fe8259951830bdf7c3dbfd,5df7ad1605620553d327a029,"[224, 155, 32, 248, 170, 169, 71, 238, 17, 176, 74, 28, 85, 124, 205, 28, 126, 124, 43, 102, 50, 177, 31, 11, 81, 83, 54, 224, 107, 109, 74, 82]",5f182f6ff0709b22657648f9,5df7ad1605620553d327a029,5f1833b3dd6389107b598cfe,0.2,jam,,,3.0,0.0,0.0,3209.6093989908695,j,120.59560103807598,f,test,0.0,,,
,p5cd_ad,36,159383,0.0-6.0-1.1-0.19,f078aa2862041786868ef9f2ad23336df49386eb98fe8259951830bdf7c3dbfd,5df7ad1605620553d327a029,"[224, 155, 32, 248, 170, 169, 71, 238, 17, 176, 74, 28, 85, 124, 205, 28, 126, 124, 43, 102, 50, 177, 31, 11, 81, 83, 54, 224, 107, 109, 74, 82]",5f182f6ff0709b22657648f9,5df7ad1605620553d327a029,5f1833b3dd6389107b598cfe,0.2,jam,,,3.0,1.0,1.0,1543.9699511858635,j,389.270048821345,j,test,1.0,,,
,p5cd_ad,37,161256,0.0-6.0-1.1-0.20,f078aa2862041786868ef9f2ad23336df49386eb98fe8259951830bdf7c3dbfd,5df7ad1605620553d327a029,"[224, 155, 32, 248, 170, 169, 71, 238, 17, 176, 74, 28, 85, 124, 205, 28, 126, 124, 43, 102, 50, 177, 31, 11, 81, 83, 54, 224, 107, 109, 74, 82]",5f182f6ff0709b22657648f9,5df7ad1605620553d327a029,5f1833b3dd6389107b598cfe,0.2,jam,,,1.0,0.0,0.0,457.58265864569694,f,261.5023413673043,f,test,1.0,,,
,p5cd_ad,38,165183,0.0-6.0-1.1-0.21,f078aa2862041786868ef9f2ad23336df49386eb98fe8259951830bdf7c3dbfd,5df7ad1605620553d327a029,"[224, 155, 32, 248, 170, 169, 71, 238, 17, 176, 74, 28, 85, 124, 205, 28, 126, 124, 43, 102, 50, 177, 31, 11, 81, 83, 54, 224, 107, 109, 74, 82]",5f182f6ff0709b22657648f9,5df7ad1605620553d327a029,5f1833b3dd6389107b598cfe,0.2,jam,,,9.0,0.0,1.0,2364.2784592462704,f,399.8465407639742,f,test,1.0,,,
,p5cd_ad,39,167522,0.0-6.0-1.1-0.22,f078aa2862041786868ef9f2ad23336df49386eb98fe8259951830bdf7c3dbfd,5df7ad1605620553d327a029,"[224, 155, 32, 248, 170, 169, 71, 238, 17, 176, 74, 28, 85, 124, 205, 28, 126, 124, 43, 102, 50, 177, 31, 11, 81, 83, 54, 224, 107, 109, 74, 82]",5f182f6ff0709b22657648f9,5df7ad1605620553d327a029,5f1833b3dd6389107b598cfe,0.2,jam,,,1.0,1.0,1.0,699.2777134524658,j,485.5722865322605,j,test,1.0,,,
,p5cd_ad,40,170865,0.0-6.0-1.1-0.23,f078aa2862041786868ef9f2ad23336df49386eb98fe8259951830bdf7c3dbfd,5df7ad1605620553d327a029,"[224, 155, 32, 248, 170, 169, 71, 238, 17, 176, 74, 28, 85, 124, 205, 28, 126, 124, 43, 102, 50, 177, 31, 11, 81, 83, 54, 224, 107, 109, 74, 82]",5f182f6ff0709b22657648f9,5df7ad1605620553d327a029,5f1833b3dd6389107b598cfe,0.2,jam,,,5.0,0.0,0.0,1897.117920126766,j,289.91707984823734,f,test,0.0,,,
,p5cd_ad,41,173086,0.0-6.0-1.1-0.24,f078aa2862041786868ef9f2ad23336df49386eb98fe8259951830bdf7c3dbfd,5df7ad1605620553d327a029,"[224, 155, 32, 248, 170, 169, 71, 238, 17, 176, 74, 28, 85, 124, 205, 28, 126, 124, 43, 102, 50, 177, 31, 11, 81, 83, 54, 224, 107, 109, 74, 82]",5f182f6ff0709b22657648f9,5df7ad1605620553d327a029,5f1833b3dd6389107b598cfe,0.2,jam,,,5.0,1.0,0.0,766.0562920151278,f,291.4687079610303,j,test,0.0,,,
,p5cd_ad,42,176112,0.0-6.0-1.1-0.25,f078aa2862041786868ef9f2ad23336df49386eb98fe8259951830bdf7c3dbfd,5df7ad1605620553d327a029,"[224, 155, 32, 248, 170, 169, 71, 238, 17, 176, 74, 28, 85, 124, 205, 28, 126, 124, 43, 102, 50, 177, 31, 11, 81, 83, 54, 224, 107, 109, 74, 82]",5f182f6ff0709b22657648f9,5df7ad1605620553d327a029,5f1833b3dd6389107b598cfe,0.2,jam,,,9.0,0.0,0.0,1659.5776019617915,j,207.0123980520293,f,test,0.0,,,
,p5cd_ad,43,179505,0.0-6.0-1.1-0.26,f078aa2862041786868ef9f2ad23336df49386eb98fe8259951830bdf7c3dbfd,5df7ad1605620553d327a029,"[224, 155, 32, 248, 170, 169, 71, 238, 17, 176, 74, 28, 85, 124, 205, 28, 126, 124, 43, 102, 50, 177, 31, 11, 81, 83, 54, 224, 107, 109, 74, 82]",5f182f6ff0709b22657648f9,5df7ad1605620553d327a029,5f1833b3dd6389107b598cfe,0.2,jam,,,3.0,0.0,1.0,2050.201909407042,j,183.00809059292078,f,test,0.0,,,
,p5cd_ad,44,181677,0.0-6.0-1.1-0.27,f078aa2862041786868ef9f2ad23336df49386eb98fe8259951830bdf7c3dbfd,5df7ad1605620553d327a029,"[224, 155, 32, 248, 170, 169, 71, 238, 17, 176, 74, 28, 85, 124, 205, 28, 126, 124, 43, 102, 50, 177, 31, 11, 81, 83, 54, 224, 107, 109, 74, 82]",5f182f6ff0709b22657648f9,5df7ad1605620553d327a029,5f1833b3dd6389107b598cfe,0.2,jam,,,3.0,1.0,0.0,793.0831426871009,f,222.90685726329684,j,test,0.0,,,
,p5cd_ad,45,183751,0.0-6.0-1.1-0.28,f078aa2862041786868ef9f2ad23336df49386eb98fe8259951830bdf7c3dbfd,5df7ad1605620553d327a029,"[224, 155, 32, 248, 170, 169, 71, 238, 17, 176, 74, 28, 85, 124, 205, 28, 126, 124, 43, 102, 50, 177, 31, 11, 81, 83, 54, 224, 107, 109, 74, 82]",5f182f6ff0709b22657648f9,5df7ad1605620553d327a029,5f1833b3dd6389107b598cfe,0.2,jam,,,1.0,0.0,1.0,498.72123318491504,f,407.19876682851464,f,test,1.0,,,
,p5cd_ad,46,185888,0.0-6.0-1.1-0.29,f078aa2862041786868ef9f2ad23336df49386eb98fe8259951830bdf7c3dbfd,5df7ad1605620553d327a029,"[224, 155, 32, 248, 170, 169, 71, 238, 17, 176, 74, 28, 85, 124, 205, 28, 126, 124, 43, 102, 50, 177, 31, 11, 81, 83, 54, 224, 107, 109, 74, 82]",5f182f6ff0709b22657648f9,5df7ad1605620553d327a029,5f1833b3dd6389107b598cfe,0.2,jam,,,9.0,1.0,0.0,934.1454770998098,j,48.339522909373045,j,test,1.0,,,
