success,trial_type,trial_index,time_elapsed,internal_node_id,STUDY_ID,PROLIFIC_PID,SESSION_ID,FP,bonus,view_history,rt,stimulus,key_press,shape_array,effect,correct_response,test_part,trial_part,correct,responses,trial_name
1.0,fullscreen,0,19065,0.0-0.0,5f0c7ec1aabfdb45097524af,5ea9de15df734413226d7f0d,5f0c8a478985aa622a843b7f,True,0.47000000000000003,,,,,,,,,,,,
,instructions,1,23243,0.0-1.0,5f0c7ec1aabfdb45097524af,5ea9de15df734413226d7f0d,5f0c8a478985aa622a843b7f,True,0.47000000000000003,"[{""page_index"":0,""viewing_time"":1535.745000001043},{""page_index"":1,""viewing_time"":569.0349999349564},{""page_index"":2,""viewing_time"":721.155000035651},{""page_index"":3,""viewing_time"":676.3150000479072},{""page_index"":4,""viewing_time"":669.7399999247864}]",4174.340000026859,,,,,,,,,,
,html-keyboard-response,2,23751,0.0-2.0-0.0-0.0,5f0c7ec1aabfdb45097524af,5ea9de15df734413226d7f0d,5f0c8a478985aa622a843b7f,True,0.47000000000000003,,,"<h2>Will the cat appear after this screen?</h2><div class=""J_key""><strong>Yes</strong> <br> (press J)</div><div class=""F_key""><strong>No</strong> <br> (press F)</div>",,['stimuli/circle.png'],1.0,j,practice,prepare,,,
,html-keyboard-response,3,28756,0.0-2.0-0.0-1.0,5f0c7ec1aabfdb45097524af,5ea9de15df734413226d7f0d,5f0c8a478985aa622a843b7f,True,0.47000000000000003,,,"<h2>Will the cat appear after this screen?</h2><div class=""J_key""><strong>Yes</strong> <br> (press J)</div><div class=""F_key""><strong>No</strong> <br> (press F)</div><div class=""central_stim""><img src=""stimuli/circle.png"" width=""30%"" style=""padding:2vmin""></div>",,['stimuli/circle.png'],1.0,j,practice,main,,,
,html-keyboard-response,4,30763,0.0-2.0-0.0-2.0,5f0c7ec1aabfdb45097524af,5ea9de15df734413226d7f0d,5f0c8a478985aa622a843b7f,True,0.47000000000000003,,,"<div class=""central_stim""><img src=""stimuli/cat.png"" class=""cat""></div>",,['stimuli/circle.png'],1.0,j,practice,feedback,,,
,html-keyboard-response,5,31271,0.0-2.0-0.0-0.1,5f0c7ec1aabfdb45097524af,5ea9de15df734413226d7f0d,5f0c8a478985aa622a843b7f,True,0.47000000000000003,,,"<h2>Will the cat appear after this screen?</h2><div class=""J_key""><strong>Yes</strong> <br> (press J)</div><div class=""F_key""><strong>No</strong> <br> (press F)</div>",,['stimuli/heart.png'],0.0,f,practice,prepare,,,
,html-keyboard-response,6,36278,0.0-2.0-0.0-1.1,5f0c7ec1aabfdb45097524af,5ea9de15df734413226d7f0d,5f0c8a478985aa622a843b7f,True,0.47000000000000003,,,"<h2>Will the cat appear after this screen?</h2><div class=""J_key""><strong>Yes</strong> <br> (press J)</div><div class=""F_key""><strong>No</strong> <br> (press F)</div><div class=""central_stim""><img src=""stimuli/heart.png"" width=""30%"" style=""padding:2vmin""></div>",,['stimuli/heart.png'],0.0,f,practice,main,,,
,html-keyboard-response,7,38283,0.0-2.0-0.0-2.1,5f0c7ec1aabfdb45097524af,5ea9de15df734413226d7f0d,5f0c8a478985aa622a843b7f,True,0.47000000000000003,,,"<div class=""central_stim""></div>",,['stimuli/heart.png'],0.0,f,practice,feedback,,,
,html-keyboard-response,8,38791,0.0-2.0-0.0-0.2,5f0c7ec1aabfdb45097524af,5ea9de15df734413226d7f0d,5f0c8a478985aa622a843b7f,True,0.47000000000000003,,,"<h2>Will the cat appear after this screen?</h2><div class=""J_key""><strong>Yes</strong> <br> (press J)</div><div class=""F_key""><strong>No</strong> <br> (press F)</div>",,['stimuli/heart.png'],0.0,f,practice,prepare,,,
,html-keyboard-response,9,43794,0.0-2.0-0.0-1.2,5f0c7ec1aabfdb45097524af,5ea9de15df734413226d7f0d,5f0c8a478985aa622a843b7f,True,0.47000000000000003,,,"<h2>Will the cat appear after this screen?</h2><div class=""J_key""><strong>Yes</strong> <br> (press J)</div><div class=""F_key""><strong>No</strong> <br> (press F)</div><div class=""central_stim""><img src=""stimuli/heart.png"" width=""30%"" style=""padding:2vmin""></div>",,['stimuli/heart.png'],0.0,f,practice,main,,,
,html-keyboard-response,10,45806,0.0-2.0-0.0-2.2,5f0c7ec1aabfdb45097524af,5ea9de15df734413226d7f0d,5f0c8a478985aa622a843b7f,True,0.47000000000000003,,,"<div class=""central_stim""></div>",,['stimuli/heart.png'],0.0,f,practice,feedback,,,
,html-keyboard-response,11,46311,0.0-2.0-0.0-0.3,5f0c7ec1aabfdb45097524af,5ea9de15df734413226d7f0d,5f0c8a478985aa622a843b7f,True,0.47000000000000003,,,"<h2>Will the cat appear after this screen?</h2><div class=""J_key""><strong>Yes</strong> <br> (press J)</div><div class=""F_key""><strong>No</strong> <br> (press F)</div>",,['stimuli/circle.png'],1.0,j,practice,prepare,,,
,html-keyboard-response,12,51318,0.0-2.0-0.0-1.3,5f0c7ec1aabfdb45097524af,5ea9de15df734413226d7f0d,5f0c8a478985aa622a843b7f,True,0.47000000000000003,,,"<h2>Will the cat appear after this screen?</h2><div class=""J_key""><strong>Yes</strong> <br> (press J)</div><div class=""F_key""><strong>No</strong> <br> (press F)</div><div class=""central_stim""><img src=""stimuli/circle.png"" width=""30%"" style=""padding:2vmin""></div>",,['stimuli/circle.png'],1.0,j,practice,main,,,
,html-keyboard-response,13,53323,0.0-2.0-0.0-2.3,5f0c7ec1aabfdb45097524af,5ea9de15df734413226d7f0d,5f0c8a478985aa622a843b7f,True,0.47000000000000003,,,"<div class=""central_stim""><img src=""stimuli/cat.png"" class=""cat""></div>",,['stimuli/circle.png'],1.0,j,practice,feedback,,,
,html-keyboard-response,14,53830,0.0-2.1-0.1-0.4,5f0c7ec1aabfdb45097524af,5ea9de15df734413226d7f0d,5f0c8a478985aa622a843b7f,True,0.47000000000000003,,,"<h2>Will the cat appear after this screen?</h2><div class=""J_key""><strong>Yes</strong> <br> (press J)</div><div class=""F_key""><strong>No</strong> <br> (press F)</div>",,['stimuli/heart.png'],0.0,f,practice,prepare,,,
,html-keyboard-response,15,58835,0.0-2.1-0.1-1.4,5f0c7ec1aabfdb45097524af,5ea9de15df734413226d7f0d,5f0c8a478985aa622a843b7f,True,0.47000000000000003,,,"<h2>Will the cat appear after this screen?</h2><div class=""J_key""><strong>Yes</strong> <br> (press J)</div><div class=""F_key""><strong>No</strong> <br> (press F)</div><div class=""central_stim""><img src=""stimuli/heart.png"" width=""30%"" style=""padding:2vmin""></div>",,['stimuli/heart.png'],0.0,f,practice,main,,,
,html-keyboard-response,16,60854,0.0-2.1-0.1-2.4,5f0c7ec1aabfdb45097524af,5ea9de15df734413226d7f0d,5f0c8a478985aa622a843b7f,True,0.47000000000000003,,,"<div class=""central_stim""></div>",,['stimuli/heart.png'],0.0,f,practice,feedback,,,
,html-keyboard-response,17,61361,0.0-2.1-0.1-0.5,5f0c7ec1aabfdb45097524af,5ea9de15df734413226d7f0d,5f0c8a478985aa622a843b7f,True,0.47000000000000003,,,"<h2>Will the cat appear after this screen?</h2><div class=""J_key""><strong>Yes</strong> <br> (press J)</div><div class=""F_key""><strong>No</strong> <br> (press F)</div>",,['stimuli/circle.png'],1.0,j,practice,prepare,,,
,html-keyboard-response,18,66364,0.0-2.1-0.1-1.5,5f0c7ec1aabfdb45097524af,5ea9de15df734413226d7f0d,5f0c8a478985aa622a843b7f,True,0.47000000000000003,,,"<h2>Will the cat appear after this screen?</h2><div class=""J_key""><strong>Yes</strong> <br> (press J)</div><div class=""F_key""><strong>No</strong> <br> (press F)</div><div class=""central_stim""><img src=""stimuli/circle.png"" width=""30%"" style=""padding:2vmin""></div>",,['stimuli/circle.png'],1.0,j,practice,main,,,
,html-keyboard-response,19,68367,0.0-2.1-0.1-2.5,5f0c7ec1aabfdb45097524af,5ea9de15df734413226d7f0d,5f0c8a478985aa622a843b7f,True,0.47000000000000003,,,"<div class=""central_stim""><img src=""stimuli/cat.png"" class=""cat""></div>",,['stimuli/circle.png'],1.0,j,practice,feedback,,,
,html-keyboard-response,20,68871,0.0-2.1-0.1-0.6,5f0c7ec1aabfdb45097524af,5ea9de15df734413226d7f0d,5f0c8a478985aa622a843b7f,True,0.47000000000000003,,,"<h2>Will the cat appear after this screen?</h2><div class=""J_key""><strong>Yes</strong> <br> (press J)</div><div class=""F_key""><strong>No</strong> <br> (press F)</div>",,['stimuli/heart.png'],0.0,f,practice,prepare,,,
,html-keyboard-response,21,73879,0.0-2.1-0.1-1.6,5f0c7ec1aabfdb45097524af,5ea9de15df734413226d7f0d,5f0c8a478985aa622a843b7f,True,0.47000000000000003,,,"<h2>Will the cat appear after this screen?</h2><div class=""J_key""><strong>Yes</strong> <br> (press J)</div><div class=""F_key""><strong>No</strong> <br> (press F)</div><div class=""central_stim""><img src=""stimuli/heart.png"" width=""30%"" style=""padding:2vmin""></div>",,['stimuli/heart.png'],0.0,f,practice,main,,,
,html-keyboard-response,22,75887,0.0-2.1-0.1-2.6,5f0c7ec1aabfdb45097524af,5ea9de15df734413226d7f0d,5f0c8a478985aa622a843b7f,True,0.47000000000000003,,,"<div class=""central_stim""></div>",,['stimuli/heart.png'],0.0,f,practice,feedback,,,
,html-keyboard-response,23,76393,0.0-2.1-0.1-0.7,5f0c7ec1aabfdb45097524af,5ea9de15df734413226d7f0d,5f0c8a478985aa622a843b7f,True,0.47000000000000003,,,"<h2>Will the cat appear after this screen?</h2><div class=""J_key""><strong>Yes</strong> <br> (press J)</div><div class=""F_key""><strong>No</strong> <br> (press F)</div>",,['stimuli/circle.png'],1.0,j,practice,prepare,,,
,html-keyboard-response,24,81400,0.0-2.1-0.1-1.7,5f0c7ec1aabfdb45097524af,5ea9de15df734413226d7f0d,5f0c8a478985aa622a843b7f,True,0.47000000000000003,,,"<h2>Will the cat appear after this screen?</h2><div class=""J_key""><strong>Yes</strong> <br> (press J)</div><div class=""F_key""><strong>No</strong> <br> (press F)</div><div class=""central_stim""><img src=""stimuli/circle.png"" width=""30%"" style=""padding:2vmin""></div>",,['stimuli/circle.png'],1.0,j,practice,main,,,
,html-keyboard-response,25,83405,0.0-2.1-0.1-2.7,5f0c7ec1aabfdb45097524af,5ea9de15df734413226d7f0d,5f0c8a478985aa622a843b7f,True,0.47000000000000003,,,"<div class=""central_stim""><img src=""stimuli/cat.png"" class=""cat""></div>",,['stimuli/circle.png'],1.0,j,practice,feedback,,,
,html-keyboard-response,26,83910,0.0-2.2-0.2-0.8,5f0c7ec1aabfdb45097524af,5ea9de15df734413226d7f0d,5f0c8a478985aa622a843b7f,True,0.47000000000000003,,,"<h2>Will the cat appear after this screen?</h2><div class=""J_key""><strong>Yes</strong> <br> (press J)</div><div class=""F_key""><strong>No</strong> <br> (press F)</div>",,['stimuli/circle.png'],1.0,j,practice,prepare,,,
,html-keyboard-response,27,88913,0.0-2.2-0.2-1.8,5f0c7ec1aabfdb45097524af,5ea9de15df734413226d7f0d,5f0c8a478985aa622a843b7f,True,0.47000000000000003,,,"<h2>Will the cat appear after this screen?</h2><div class=""J_key""><strong>Yes</strong> <br> (press J)</div><div class=""F_key""><strong>No</strong> <br> (press F)</div><div class=""central_stim""><img src=""stimuli/circle.png"" width=""30%"" style=""padding:2vmin""></div>",,['stimuli/circle.png'],1.0,j,practice,main,,,
,html-keyboard-response,28,90923,0.0-2.2-0.2-2.8,5f0c7ec1aabfdb45097524af,5ea9de15df734413226d7f0d,5f0c8a478985aa622a843b7f,True,0.47000000000000003,,,"<div class=""central_stim""><img src=""stimuli/cat.png"" class=""cat""></div>",,['stimuli/circle.png'],1.0,j,practice,feedback,,,
,html-keyboard-response,29,91431,0.0-2.2-0.2-0.9,5f0c7ec1aabfdb45097524af,5ea9de15df734413226d7f0d,5f0c8a478985aa622a843b7f,True,0.47000000000000003,,,"<h2>Will the cat appear after this screen?</h2><div class=""J_key""><strong>Yes</strong> <br> (press J)</div><div class=""F_key""><strong>No</strong> <br> (press F)</div>",,['stimuli/heart.png'],0.0,f,practice,prepare,,,
,html-keyboard-response,30,92171,0.0-2.2-0.2-1.9,5f0c7ec1aabfdb45097524af,5ea9de15df734413226d7f0d,5f0c8a478985aa622a843b7f,True,0.47000000000000003,,735.5400000233203,"<h2>Will the cat appear after this screen?</h2><div class=""J_key""><strong>Yes</strong> <br> (press J)</div><div class=""F_key""><strong>No</strong> <br> (press F)</div><div class=""central_stim""><img src=""stimuli/heart.png"" width=""30%"" style=""padding:2vmin""></div>",70.0,['stimuli/heart.png'],0.0,f,practice,main,1.0,,
,html-keyboard-response,31,94176,0.0-2.2-0.2-2.9,5f0c7ec1aabfdb45097524af,5ea9de15df734413226d7f0d,5f0c8a478985aa622a843b7f,True,0.47000000000000003,,,"<div class=""central_stim""></div>",,['stimuli/heart.png'],0.0,f,practice,feedback,,,
,html-keyboard-response,32,94681,0.0-2.2-0.2-0.10,5f0c7ec1aabfdb45097524af,5ea9de15df734413226d7f0d,5f0c8a478985aa622a843b7f,True,0.47000000000000003,,,"<h2>Will the cat appear after this screen?</h2><div class=""J_key""><strong>Yes</strong> <br> (press J)</div><div class=""F_key""><strong>No</strong> <br> (press F)</div>",,['stimuli/circle.png'],1.0,j,practice,prepare,,,
,html-keyboard-response,33,95326,0.0-2.2-0.2-1.10,5f0c7ec1aabfdb45097524af,5ea9de15df734413226d7f0d,5f0c8a478985aa622a843b7f,True,0.47000000000000003,,640.9850000636652,"<h2>Will the cat appear after this screen?</h2><div class=""J_key""><strong>Yes</strong> <br> (press J)</div><div class=""F_key""><strong>No</strong> <br> (press F)</div><div class=""central_stim""><img src=""stimuli/circle.png"" width=""30%"" style=""padding:2vmin""></div>",74.0,['stimuli/circle.png'],1.0,j,practice,main,1.0,,
,html-keyboard-response,34,97332,0.0-2.2-0.2-2.10,5f0c7ec1aabfdb45097524af,5ea9de15df734413226d7f0d,5f0c8a478985aa622a843b7f,True,0.47000000000000003,,,"<div class=""central_stim""><img src=""stimuli/cat.png"" class=""cat""></div>",,['stimuli/circle.png'],1.0,j,practice,feedback,,,
,html-keyboard-response,35,97838,0.0-2.2-0.2-0.11,5f0c7ec1aabfdb45097524af,5ea9de15df734413226d7f0d,5f0c8a478985aa622a843b7f,True,0.47000000000000003,,,"<h2>Will the cat appear after this screen?</h2><div class=""J_key""><strong>Yes</strong> <br> (press J)</div><div class=""F_key""><strong>No</strong> <br> (press F)</div>",,['stimuli/heart.png'],0.0,f,practice,prepare,,,
,html-keyboard-response,36,99056,0.0-2.2-0.2-1.11,5f0c7ec1aabfdb45097524af,5ea9de15df734413226d7f0d,5f0c8a478985aa622a843b7f,True,0.47000000000000003,,1213.285000063479,"<h2>Will the cat appear after this screen?</h2><div class=""J_key""><strong>Yes</strong> <br> (press J)</div><div class=""F_key""><strong>No</strong> <br> (press F)</div><div class=""central_stim""><img src=""stimuli/heart.png"" width=""30%"" style=""padding:2vmin""></div>",70.0,['stimuli/heart.png'],0.0,f,practice,main,1.0,,
,html-keyboard-response,37,101061,0.0-2.2-0.2-2.11,5f0c7ec1aabfdb45097524af,5ea9de15df734413226d7f0d,5f0c8a478985aa622a843b7f,True,0.47000000000000003,,,"<div class=""central_stim""></div>",,['stimuli/heart.png'],0.0,f,practice,feedback,,,
,html-keyboard-response,38,101569,0.0-2.3-0.3-0.12,5f0c7ec1aabfdb45097524af,5ea9de15df734413226d7f0d,5f0c8a478985aa622a843b7f,True,0.47000000000000003,,,"<h2>Will the cat appear after this screen?</h2><div class=""J_key""><strong>Yes</strong> <br> (press J)</div><div class=""F_key""><strong>No</strong> <br> (press F)</div>",,['stimuli/circle.png'],1.0,j,practice,prepare,,,
,html-keyboard-response,39,102846,0.0-2.3-0.3-1.12,5f0c7ec1aabfdb45097524af,5ea9de15df734413226d7f0d,5f0c8a478985aa622a843b7f,True,0.47000000000000003,,1273.9249999867752,"<h2>Will the cat appear after this screen?</h2><div class=""J_key""><strong>Yes</strong> <br> (press J)</div><div class=""F_key""><strong>No</strong> <br> (press F)</div><div class=""central_stim""><img src=""stimuli/circle.png"" width=""30%"" style=""padding:2vmin""></div>",74.0,['stimuli/circle.png'],1.0,j,practice,main,1.0,,
,html-keyboard-response,40,104852,0.0-2.3-0.3-2.12,5f0c7ec1aabfdb45097524af,5ea9de15df734413226d7f0d,5f0c8a478985aa622a843b7f,True,0.47000000000000003,,,"<div class=""central_stim""><img src=""stimuli/cat.png"" class=""cat""></div>",,['stimuli/circle.png'],1.0,j,practice,feedback,,,
,html-keyboard-response,41,105356,0.0-2.3-0.3-0.13,5f0c7ec1aabfdb45097524af,5ea9de15df734413226d7f0d,5f0c8a478985aa622a843b7f,True,0.47000000000000003,,,"<h2>Will the cat appear after this screen?</h2><div class=""J_key""><strong>Yes</strong> <br> (press J)</div><div class=""F_key""><strong>No</strong> <br> (press F)</div>",,['stimuli/heart.png'],0.0,f,practice,prepare,,,
,html-keyboard-response,42,106788,0.0-2.3-0.3-1.13,5f0c7ec1aabfdb45097524af,5ea9de15df734413226d7f0d,5f0c8a478985aa622a843b7f,True,0.47000000000000003,,1428.3999999752268,"<h2>Will the cat appear after this screen?</h2><div class=""J_key""><strong>Yes</strong> <br> (press J)</div><div class=""F_key""><strong>No</strong> <br> (press F)</div><div class=""central_stim""><img src=""stimuli/heart.png"" width=""30%"" style=""padding:2vmin""></div>",70.0,['stimuli/heart.png'],0.0,f,practice,main,1.0,,
,html-keyboard-response,43,108793,0.0-2.3-0.3-2.13,5f0c7ec1aabfdb45097524af,5ea9de15df734413226d7f0d,5f0c8a478985aa622a843b7f,True,0.47000000000000003,,,"<div class=""central_stim""></div>",,['stimuli/heart.png'],0.0,f,practice,feedback,,,
,html-keyboard-response,44,109302,0.0-2.3-0.3-0.14,5f0c7ec1aabfdb45097524af,5ea9de15df734413226d7f0d,5f0c8a478985aa622a843b7f,True,0.47000000000000003,,,"<h2>Will the cat appear after this screen?</h2><div class=""J_key""><strong>Yes</strong> <br> (press J)</div><div class=""F_key""><strong>No</strong> <br> (press F)</div>",,['stimuli/heart.png'],0.0,f,practice,prepare,,,
,html-keyboard-response,45,110923,0.0-2.3-0.3-1.14,5f0c7ec1aabfdb45097524af,5ea9de15df734413226d7f0d,5f0c8a478985aa622a843b7f,True,0.47000000000000003,,1617.0400000410154,"<h2>Will the cat appear after this screen?</h2><div class=""J_key""><strong>Yes</strong> <br> (press J)</div><div class=""F_key""><strong>No</strong> <br> (press F)</div><div class=""central_stim""><img src=""stimuli/heart.png"" width=""30%"" style=""padding:2vmin""></div>",70.0,['stimuli/heart.png'],0.0,f,practice,main,1.0,,
,html-keyboard-response,46,112925,0.0-2.3-0.3-2.14,5f0c7ec1aabfdb45097524af,5ea9de15df734413226d7f0d,5f0c8a478985aa622a843b7f,True,0.47000000000000003,,,"<div class=""central_stim""></div>",,['stimuli/heart.png'],0.0,f,practice,feedback,,,
,html-keyboard-response,47,113429,0.0-2.3-0.3-0.15,5f0c7ec1aabfdb45097524af,5ea9de15df734413226d7f0d,5f0c8a478985aa622a843b7f,True,0.47000000000000003,,,"<h2>Will the cat appear after this screen?</h2><div class=""J_key""><strong>Yes</strong> <br> (press J)</div><div class=""F_key""><strong>No</strong> <br> (press F)</div>",,['stimuli/circle.png'],1.0,j,practice,prepare,,,
,html-keyboard-response,48,114563,0.0-2.3-0.3-1.15,5f0c7ec1aabfdb45097524af,5ea9de15df734413226d7f0d,5f0c8a478985aa622a843b7f,True,0.47000000000000003,,1133.3100000629202,"<h2>Will the cat appear after this screen?</h2><div class=""J_key""><strong>Yes</strong> <br> (press J)</div><div class=""F_key""><strong>No</strong> <br> (press F)</div><div class=""central_stim""><img src=""stimuli/circle.png"" width=""30%"" style=""padding:2vmin""></div>",74.0,['stimuli/circle.png'],1.0,j,practice,main,1.0,,
,html-keyboard-response,49,116571,0.0-2.3-0.3-2.15,5f0c7ec1aabfdb45097524af,5ea9de15df734413226d7f0d,5f0c8a478985aa622a843b7f,True,0.47000000000000003,,,"<div class=""central_stim""><img src=""stimuli/cat.png"" class=""cat""></div>",,['stimuli/circle.png'],1.0,j,practice,feedback,,,
,survey-text,50,195107,0.0-3.0,5f0c7ec1aabfdb45097524af,5ea9de15df734413226d7f0d,5f0c8a478985aa622a843b7f,True,0.47000000000000003,,78527.06500003114,,,,,,,,,"{""Q0"":""I press F if no cat will show after the shape and I press J if a cat will show after the shape.""}",
,instructions,51,202787,0.0-4.0,5f0c7ec1aabfdb45097524af,5ea9de15df734413226d7f0d,5f0c8a478985aa622a843b7f,True,0.47000000000000003,"[{""page_index"":0,""viewing_time"":7677.235000068322}]",7678.47000004258,,,,,,,,,,
,html-keyboard-response,52,203296,0.0-5.0-0.0,5f0c7ec1aabfdb45097524af,5ea9de15df734413226d7f0d,5f0c8a478985aa622a843b7f,True,0.47000000000000003,,,"<h2>Will the cat appear after this screen?</h2><div class=""J_key""><strong>Yes</strong> <br> (press J)</div><div class=""F_key""><strong>No</strong> <br> (press F)</div><p class=""progress""> [1/64]</br>number of points: 0</p>",,['stimuli/plus.png'],1.0,j,test,prepare,,,C+
,html-keyboard-response,53,205595,0.0-5.0-1.0,5f0c7ec1aabfdb45097524af,5ea9de15df734413226d7f0d,5f0c8a478985aa622a843b7f,True,0.47000000000000003,,2296.9699999084696,"<h2>Will the cat appear after this screen?</h2><div class=""J_key""><strong>Yes</strong> <br> (press J)</div><div class=""F_key""><strong>No</strong> <br> (press F)</div><div class=""central_stim""><img src=""stimuli/plus.png"" width=""30%"" style=""padding:2vmin""></div><p class=""progress""> [1/64]</br>number of points: 0</p>",70.0,['stimuli/plus.png'],1.0,j,test,main,0.0,,C+
,html-keyboard-response,54,207599,0.0-5.0-2.0,5f0c7ec1aabfdb45097524af,5ea9de15df734413226d7f0d,5f0c8a478985aa622a843b7f,True,0.47000000000000003,,,"<div class=""central_stim""><img src=""stimuli/cat.png"" class=""cat""></div><p class=""progress""> [1/64]</br>number of points: 0</p>",,['stimuli/plus.png'],1.0,j,test,feedback,,,C+
,html-keyboard-response,55,208102,0.0-5.0-0.1,5f0c7ec1aabfdb45097524af,5ea9de15df734413226d7f0d,5f0c8a478985aa622a843b7f,True,0.47000000000000003,,,"<h2>Will the cat appear after this screen?</h2><div class=""J_key""><strong>Yes</strong> <br> (press J)</div><div class=""F_key""><strong>No</strong> <br> (press F)</div><p class=""progress""> [2/64]</br>number of points: 0</p>",,['stimuli/O.png'],0.0,f,test,prepare,,,O-
,html-keyboard-response,56,209788,0.0-5.0-1.1,5f0c7ec1aabfdb45097524af,5ea9de15df734413226d7f0d,5f0c8a478985aa622a843b7f,True,0.47000000000000003,,1683.225000044331,"<h2>Will the cat appear after this screen?</h2><div class=""J_key""><strong>Yes</strong> <br> (press J)</div><div class=""F_key""><strong>No</strong> <br> (press F)</div><div class=""central_stim""><img src=""stimuli/O.png"" width=""30%"" style=""padding:2vmin""></div><p class=""progress""> [2/64]</br>number of points: 0</p>",70.0,['stimuli/O.png'],0.0,f,test,main,1.0,,O-
,html-keyboard-response,57,211793,0.0-5.0-2.1,5f0c7ec1aabfdb45097524af,5ea9de15df734413226d7f0d,5f0c8a478985aa622a843b7f,True,0.47000000000000003,,,"<div class=""central_stim""></div><p class=""progress""> [2/64]</br>number of points: 1</p>",,['stimuli/O.png'],0.0,f,test,feedback,,,O-
,html-keyboard-response,58,212295,0.0-5.0-0.2,5f0c7ec1aabfdb45097524af,5ea9de15df734413226d7f0d,5f0c8a478985aa622a843b7f,True,0.47000000000000003,,,"<h2>Will the cat appear after this screen?</h2><div class=""J_key""><strong>Yes</strong> <br> (press J)</div><div class=""F_key""><strong>No</strong> <br> (press F)</div><p class=""progress""> [3/64]</br>number of points: 1</p>",,['stimuli/spade.png'],1.0,j,test,prepare,,,B+
,html-keyboard-response,59,213913,0.0-5.0-1.2,5f0c7ec1aabfdb45097524af,5ea9de15df734413226d7f0d,5f0c8a478985aa622a843b7f,True,0.47000000000000003,,1616.6849998990074,"<h2>Will the cat appear after this screen?</h2><div class=""J_key""><strong>Yes</strong> <br> (press J)</div><div class=""F_key""><strong>No</strong> <br> (press F)</div><div class=""central_stim""><img src=""stimuli/spade.png"" width=""30%"" style=""padding:2vmin""></div><p class=""progress""> [3/64]</br>number of points: 1</p>",70.0,['stimuli/spade.png'],1.0,j,test,main,0.0,,B+
,html-keyboard-response,60,215919,0.0-5.0-2.2,5f0c7ec1aabfdb45097524af,5ea9de15df734413226d7f0d,5f0c8a478985aa622a843b7f,True,0.47000000000000003,,,"<div class=""central_stim""><img src=""stimuli/cat.png"" class=""cat""></div><p class=""progress""> [3/64]</br>number of points: 1</p>",,['stimuli/spade.png'],1.0,j,test,feedback,,,B+
,html-keyboard-response,61,216426,0.0-5.0-0.3,5f0c7ec1aabfdb45097524af,5ea9de15df734413226d7f0d,5f0c8a478985aa622a843b7f,True,0.47000000000000003,,,"<h2>Will the cat appear after this screen?</h2><div class=""J_key""><strong>Yes</strong> <br> (press J)</div><div class=""F_key""><strong>No</strong> <br> (press F)</div><p class=""progress""> [4/64]</br>number of points: 1</p>",,"['stimuli/star.png', 'stimuli/plus.png']",0.0,f,test,prepare,,,CD-
,html-keyboard-response,62,218611,0.0-5.0-1.3,5f0c7ec1aabfdb45097524af,5ea9de15df734413226d7f0d,5f0c8a478985aa622a843b7f,True,0.47000000000000003,,2184.2199999373406,"<h2>Will the cat appear after this screen?</h2><div class=""J_key""><strong>Yes</strong> <br> (press J)</div><div class=""F_key""><strong>No</strong> <br> (press F)</div><div class=""central_stim""><img src=""stimuli/star.png"" width=""30%"" style=""padding:2vmin"">	<img src=""stimuli/plus.png"" width=""30%"" style=""padding:2vmin""></div><p class=""progress""> [4/64]</br>number of points: 1</p>",70.0,"['stimuli/star.png', 'stimuli/plus.png']",0.0,f,test,main,1.0,,CD-
,html-keyboard-response,63,220618,0.0-5.0-2.3,5f0c7ec1aabfdb45097524af,5ea9de15df734413226d7f0d,5f0c8a478985aa622a843b7f,True,0.47000000000000003,,,"<div class=""central_stim""></div><p class=""progress""> [4/64]</br>number of points: 2</p>",,"['stimuli/star.png', 'stimuli/plus.png']",0.0,f,test,feedback,,,CD-
,html-keyboard-response,64,221119,0.0-5.0-0.4,5f0c7ec1aabfdb45097524af,5ea9de15df734413226d7f0d,5f0c8a478985aa622a843b7f,True,0.47000000000000003,,,"<h2>Will the cat appear after this screen?</h2><div class=""J_key""><strong>Yes</strong> <br> (press J)</div><div class=""F_key""><strong>No</strong> <br> (press F)</div><p class=""progress""> [5/64]</br>number of points: 2</p>",,['stimuli/Q.png'],1.0,j,test,prepare,,,Q+
,html-keyboard-response,65,222773,0.0-5.0-1.4,5f0c7ec1aabfdb45097524af,5ea9de15df734413226d7f0d,5f0c8a478985aa622a843b7f,True,0.47000000000000003,,1651.5399999916553,"<h2>Will the cat appear after this screen?</h2><div class=""J_key""><strong>Yes</strong> <br> (press J)</div><div class=""F_key""><strong>No</strong> <br> (press F)</div><div class=""central_stim""><img src=""stimuli/Q.png"" width=""30%"" style=""padding:2vmin""></div><p class=""progress""> [5/64]</br>number of points: 2</p>",70.0,['stimuli/Q.png'],1.0,j,test,main,0.0,,Q+
,html-keyboard-response,66,224779,0.0-5.0-2.4,5f0c7ec1aabfdb45097524af,5ea9de15df734413226d7f0d,5f0c8a478985aa622a843b7f,True,0.47000000000000003,,,"<div class=""central_stim""><img src=""stimuli/cat.png"" class=""cat""></div><p class=""progress""> [5/64]</br>number of points: 2</p>",,['stimuli/Q.png'],1.0,j,test,feedback,,,Q+
,html-keyboard-response,67,225285,0.0-5.0-0.5,5f0c7ec1aabfdb45097524af,5ea9de15df734413226d7f0d,5f0c8a478985aa622a843b7f,True,0.47000000000000003,,,"<h2>Will the cat appear after this screen?</h2><div class=""J_key""><strong>Yes</strong> <br> (press J)</div><div class=""F_key""><strong>No</strong> <br> (press F)</div><p class=""progress""> [6/64]</br>number of points: 2</p>",,['stimuli/hexagon.png'],0.0,f,test,prepare,,,E-
,html-keyboard-response,68,226936,0.0-5.0-1.5,5f0c7ec1aabfdb45097524af,5ea9de15df734413226d7f0d,5f0c8a478985aa622a843b7f,True,0.47000000000000003,,1647.9149999795482,"<h2>Will the cat appear after this screen?</h2><div class=""J_key""><strong>Yes</strong> <br> (press J)</div><div class=""F_key""><strong>No</strong> <br> (press F)</div><div class=""central_stim""><img src=""stimuli/hexagon.png"" width=""30%"" style=""padding:2vmin""></div><p class=""progress""> [6/64]</br>number of points: 2</p>",74.0,['stimuli/hexagon.png'],0.0,f,test,main,0.0,,E-
,html-keyboard-response,69,228941,0.0-5.0-2.5,5f0c7ec1aabfdb45097524af,5ea9de15df734413226d7f0d,5f0c8a478985aa622a843b7f,True,0.47000000000000003,,,"<div class=""central_stim""></div><p class=""progress""> [6/64]</br>number of points: 2</p>",,['stimuli/hexagon.png'],0.0,f,test,feedback,,,E-
,html-keyboard-response,70,229446,0.0-5.0-0.6,5f0c7ec1aabfdb45097524af,5ea9de15df734413226d7f0d,5f0c8a478985aa622a843b7f,True,0.47000000000000003,,,"<h2>Will the cat appear after this screen?</h2><div class=""J_key""><strong>Yes</strong> <br> (press J)</div><div class=""F_key""><strong>No</strong> <br> (press F)</div><p class=""progress""> [7/64]</br>number of points: 2</p>",,"['stimuli/hexagon.png', 'stimuli/up_facing.png']",1.0,j,test,prepare,,,EF+
,html-keyboard-response,71,230404,0.0-5.0-1.6,5f0c7ec1aabfdb45097524af,5ea9de15df734413226d7f0d,5f0c8a478985aa622a843b7f,True,0.47000000000000003,,952.7750000124797,"<h2>Will the cat appear after this screen?</h2><div class=""J_key""><strong>Yes</strong> <br> (press J)</div><div class=""F_key""><strong>No</strong> <br> (press F)</div><div class=""central_stim""><img src=""stimuli/up_facing.png"" width=""30%"" style=""padding:2vmin"">	<img src=""stimuli/hexagon.png"" width=""30%"" style=""padding:2vmin""></div><p class=""progress""> [7/64]</br>number of points: 2</p>",74.0,"['stimuli/hexagon.png', 'stimuli/up_facing.png']",1.0,j,test,main,1.0,,EF+
,html-keyboard-response,72,232407,0.0-5.0-2.6,5f0c7ec1aabfdb45097524af,5ea9de15df734413226d7f0d,5f0c8a478985aa622a843b7f,True,0.47000000000000003,,,"<div class=""central_stim""><img src=""stimuli/cat.png"" class=""cat""></div><p class=""progress""> [7/64]</br>number of points: 3</p>",,"['stimuli/hexagon.png', 'stimuli/up_facing.png']",1.0,j,test,feedback,,,EF+
,html-keyboard-response,73,232912,0.0-5.0-0.7,5f0c7ec1aabfdb45097524af,5ea9de15df734413226d7f0d,5f0c8a478985aa622a843b7f,True,0.47000000000000003,,,"<h2>Will the cat appear after this screen?</h2><div class=""J_key""><strong>Yes</strong> <br> (press J)</div><div class=""F_key""><strong>No</strong> <br> (press F)</div><p class=""progress""> [8/64]</br>number of points: 3</p>",,['stimuli/clover.png'],0.0,f,test,prepare,,,A-
,html-keyboard-response,74,234080,0.0-5.0-1.7,5f0c7ec1aabfdb45097524af,5ea9de15df734413226d7f0d,5f0c8a478985aa622a843b7f,True,0.47000000000000003,,1167.1799999894574,"<h2>Will the cat appear after this screen?</h2><div class=""J_key""><strong>Yes</strong> <br> (press J)</div><div class=""F_key""><strong>No</strong> <br> (press F)</div><div class=""central_stim""><img src=""stimuli/clover.png"" width=""30%"" style=""padding:2vmin""></div><p class=""progress""> [8/64]</br>number of points: 3</p>",74.0,['stimuli/clover.png'],0.0,f,test,main,0.0,,A-
,html-keyboard-response,75,236082,0.0-5.0-2.7,5f0c7ec1aabfdb45097524af,5ea9de15df734413226d7f0d,5f0c8a478985aa622a843b7f,True,0.47000000000000003,,,"<div class=""central_stim""></div><p class=""progress""> [8/64]</br>number of points: 3</p>",,['stimuli/clover.png'],0.0,f,test,feedback,,,A-
,html-keyboard-response,76,236595,0.0-5.0-0.8,5f0c7ec1aabfdb45097524af,5ea9de15df734413226d7f0d,5f0c8a478985aa622a843b7f,True,0.47000000000000003,,,"<h2>Will the cat appear after this screen?</h2><div class=""J_key""><strong>Yes</strong> <br> (press J)</div><div class=""F_key""><strong>No</strong> <br> (press F)</div><p class=""progress""> [9/64]</br>number of points: 3</p>",,['stimuli/plus.png'],1.0,j,test,prepare,,,C+
,html-keyboard-response,77,238434,0.0-5.0-1.8,5f0c7ec1aabfdb45097524af,5ea9de15df734413226d7f0d,5f0c8a478985aa622a843b7f,True,0.47000000000000003,,1835.7300000498071,"<h2>Will the cat appear after this screen?</h2><div class=""J_key""><strong>Yes</strong> <br> (press J)</div><div class=""F_key""><strong>No</strong> <br> (press F)</div><div class=""central_stim""><img src=""stimuli/plus.png"" width=""30%"" style=""padding:2vmin""></div><p class=""progress""> [9/64]</br>number of points: 3</p>",74.0,['stimuli/plus.png'],1.0,j,test,main,1.0,,C+
,html-keyboard-response,78,240441,0.0-5.0-2.8,5f0c7ec1aabfdb45097524af,5ea9de15df734413226d7f0d,5f0c8a478985aa622a843b7f,True,0.47000000000000003,,,"<div class=""central_stim""><img src=""stimuli/cat.png"" class=""cat""></div><p class=""progress""> [9/64]</br>number of points: 4</p>",,['stimuli/plus.png'],1.0,j,test,feedback,,,C+
,html-keyboard-response,79,240951,0.0-5.0-0.9,5f0c7ec1aabfdb45097524af,5ea9de15df734413226d7f0d,5f0c8a478985aa622a843b7f,True,0.47000000000000003,,,"<h2>Will the cat appear after this screen?</h2><div class=""J_key""><strong>Yes</strong> <br> (press J)</div><div class=""F_key""><strong>No</strong> <br> (press F)</div><p class=""progress""> [10/64]</br>number of points: 4</p>",,"['stimuli/star.png', 'stimuli/plus.png']",0.0,f,test,prepare,,,CD-
,html-keyboard-response,80,242059,0.0-5.0-1.9,5f0c7ec1aabfdb45097524af,5ea9de15df734413226d7f0d,5f0c8a478985aa622a843b7f,True,0.47000000000000003,,1106.4499999629334,"<h2>Will the cat appear after this screen?</h2><div class=""J_key""><strong>Yes</strong> <br> (press J)</div><div class=""F_key""><strong>No</strong> <br> (press F)</div><div class=""central_stim""><img src=""stimuli/plus.png"" width=""30%"" style=""padding:2vmin"">	<img src=""stimuli/star.png"" width=""30%"" style=""padding:2vmin""></div><p class=""progress""> [10/64]</br>number of points: 4</p>",74.0,"['stimuli/star.png', 'stimuli/plus.png']",0.0,f,test,main,0.0,,CD-
,html-keyboard-response,81,244061,0.0-5.0-2.9,5f0c7ec1aabfdb45097524af,5ea9de15df734413226d7f0d,5f0c8a478985aa622a843b7f,True,0.47000000000000003,,,"<div class=""central_stim""></div><p class=""progress""> [10/64]</br>number of points: 4</p>",,"['stimuli/star.png', 'stimuli/plus.png']",0.0,f,test,feedback,,,CD-
,html-keyboard-response,82,244568,0.0-5.0-0.10,5f0c7ec1aabfdb45097524af,5ea9de15df734413226d7f0d,5f0c8a478985aa622a843b7f,True,0.47000000000000003,,,"<h2>Will the cat appear after this screen?</h2><div class=""J_key""><strong>Yes</strong> <br> (press J)</div><div class=""F_key""><strong>No</strong> <br> (press F)</div><p class=""progress""> [11/64]</br>number of points: 4</p>",,['stimuli/Q.png'],1.0,j,test,prepare,,,Q+
,html-keyboard-response,83,245786,0.0-5.0-1.10,5f0c7ec1aabfdb45097524af,5ea9de15df734413226d7f0d,5f0c8a478985aa622a843b7f,True,0.47000000000000003,,1214.4150000531226,"<h2>Will the cat appear after this screen?</h2><div class=""J_key""><strong>Yes</strong> <br> (press J)</div><div class=""F_key""><strong>No</strong> <br> (press F)</div><div class=""central_stim""><img src=""stimuli/Q.png"" width=""30%"" style=""padding:2vmin""></div><p class=""progress""> [11/64]</br>number of points: 4</p>",74.0,['stimuli/Q.png'],1.0,j,test,main,1.0,,Q+
,html-keyboard-response,84,247793,0.0-5.0-2.10,5f0c7ec1aabfdb45097524af,5ea9de15df734413226d7f0d,5f0c8a478985aa622a843b7f,True,0.47000000000000003,,,"<div class=""central_stim""><img src=""stimuli/cat.png"" class=""cat""></div><p class=""progress""> [11/64]</br>number of points: 5</p>",,['stimuli/Q.png'],1.0,j,test,feedback,,,Q+
,html-keyboard-response,85,248300,0.0-5.0-0.11,5f0c7ec1aabfdb45097524af,5ea9de15df734413226d7f0d,5f0c8a478985aa622a843b7f,True,0.47000000000000003,,,"<h2>Will the cat appear after this screen?</h2><div class=""J_key""><strong>Yes</strong> <br> (press J)</div><div class=""F_key""><strong>No</strong> <br> (press F)</div><p class=""progress""> [12/64]</br>number of points: 5</p>",,['stimuli/O.png'],0.0,f,test,prepare,,,O-
,html-keyboard-response,86,249926,0.0-5.0-1.11,5f0c7ec1aabfdb45097524af,5ea9de15df734413226d7f0d,5f0c8a478985aa622a843b7f,True,0.47000000000000003,,1623.9950000308454,"<h2>Will the cat appear after this screen?</h2><div class=""J_key""><strong>Yes</strong> <br> (press J)</div><div class=""F_key""><strong>No</strong> <br> (press F)</div><div class=""central_stim""><img src=""stimuli/O.png"" width=""30%"" style=""padding:2vmin""></div><p class=""progress""> [12/64]</br>number of points: 5</p>",70.0,['stimuli/O.png'],0.0,f,test,main,1.0,,O-
,html-keyboard-response,87,251932,0.0-5.0-2.11,5f0c7ec1aabfdb45097524af,5ea9de15df734413226d7f0d,5f0c8a478985aa622a843b7f,True,0.47000000000000003,,,"<div class=""central_stim""></div><p class=""progress""> [12/64]</br>number of points: 6</p>",,['stimuli/O.png'],0.0,f,test,feedback,,,O-
,html-keyboard-response,88,252435,0.0-5.0-0.12,5f0c7ec1aabfdb45097524af,5ea9de15df734413226d7f0d,5f0c8a478985aa622a843b7f,True,0.47000000000000003,,,"<h2>Will the cat appear after this screen?</h2><div class=""J_key""><strong>Yes</strong> <br> (press J)</div><div class=""F_key""><strong>No</strong> <br> (press F)</div><p class=""progress""> [13/64]</br>number of points: 6</p>",,['stimuli/hexagon.png'],0.0,f,test,prepare,,,E-
,html-keyboard-response,89,253678,0.0-5.0-1.12,5f0c7ec1aabfdb45097524af,5ea9de15df734413226d7f0d,5f0c8a478985aa622a843b7f,True,0.47000000000000003,,1241.9699999736622,"<h2>Will the cat appear after this screen?</h2><div class=""J_key""><strong>Yes</strong> <br> (press J)</div><div class=""F_key""><strong>No</strong> <br> (press F)</div><div class=""central_stim""><img src=""stimuli/hexagon.png"" width=""30%"" style=""padding:2vmin""></div><p class=""progress""> [13/64]</br>number of points: 6</p>",74.0,['stimuli/hexagon.png'],0.0,f,test,main,0.0,,E-
,html-keyboard-response,90,255680,0.0-5.0-2.12,5f0c7ec1aabfdb45097524af,5ea9de15df734413226d7f0d,5f0c8a478985aa622a843b7f,True,0.47000000000000003,,,"<div class=""central_stim""></div><p class=""progress""> [13/64]</br>number of points: 6</p>",,['stimuli/hexagon.png'],0.0,f,test,feedback,,,E-
,html-keyboard-response,91,256184,0.0-5.0-0.13,5f0c7ec1aabfdb45097524af,5ea9de15df734413226d7f0d,5f0c8a478985aa622a843b7f,True,0.47000000000000003,,,"<h2>Will the cat appear after this screen?</h2><div class=""J_key""><strong>Yes</strong> <br> (press J)</div><div class=""F_key""><strong>No</strong> <br> (press F)</div><p class=""progress""> [14/64]</br>number of points: 6</p>",,"['stimuli/hexagon.png', 'stimuli/up_facing.png']",1.0,j,test,prepare,,,EF+
,html-keyboard-response,92,257405,0.0-5.0-1.13,5f0c7ec1aabfdb45097524af,5ea9de15df734413226d7f0d,5f0c8a478985aa622a843b7f,True,0.47000000000000003,,1217.7849999861792,"<h2>Will the cat appear after this screen?</h2><div class=""J_key""><strong>Yes</strong> <br> (press J)</div><div class=""F_key""><strong>No</strong> <br> (press F)</div><div class=""central_stim""><img src=""stimuli/up_facing.png"" width=""30%"" style=""padding:2vmin"">	<img src=""stimuli/hexagon.png"" width=""30%"" style=""padding:2vmin""></div><p class=""progress""> [14/64]</br>number of points: 6</p>",74.0,"['stimuli/hexagon.png', 'stimuli/up_facing.png']",1.0,j,test,main,1.0,,EF+
,html-keyboard-response,93,259411,0.0-5.0-2.13,5f0c7ec1aabfdb45097524af,5ea9de15df734413226d7f0d,5f0c8a478985aa622a843b7f,True,0.47000000000000003,,,"<div class=""central_stim""><img src=""stimuli/cat.png"" class=""cat""></div><p class=""progress""> [14/64]</br>number of points: 7</p>",,"['stimuli/hexagon.png', 'stimuli/up_facing.png']",1.0,j,test,feedback,,,EF+
,html-keyboard-response,94,259917,0.0-5.0-0.14,5f0c7ec1aabfdb45097524af,5ea9de15df734413226d7f0d,5f0c8a478985aa622a843b7f,True,0.47000000000000003,,,"<h2>Will the cat appear after this screen?</h2><div class=""J_key""><strong>Yes</strong> <br> (press J)</div><div class=""F_key""><strong>No</strong> <br> (press F)</div><p class=""progress""> [15/64]</br>number of points: 7</p>",,['stimuli/clover.png'],0.0,f,test,prepare,,,A-
,html-keyboard-response,95,261299,0.0-5.0-1.14,5f0c7ec1aabfdb45097524af,5ea9de15df734413226d7f0d,5f0c8a478985aa622a843b7f,True,0.47000000000000003,,1380.9199999086559,"<h2>Will the cat appear after this screen?</h2><div class=""J_key""><strong>Yes</strong> <br> (press J)</div><div class=""F_key""><strong>No</strong> <br> (press F)</div><div class=""central_stim""><img src=""stimuli/clover.png"" width=""30%"" style=""padding:2vmin""></div><p class=""progress""> [15/64]</br>number of points: 7</p>",74.0,['stimuli/clover.png'],0.0,f,test,main,0.0,,A-
,html-keyboard-response,96,263302,0.0-5.0-2.14,5f0c7ec1aabfdb45097524af,5ea9de15df734413226d7f0d,5f0c8a478985aa622a843b7f,True,0.47000000000000003,,,"<div class=""central_stim""></div><p class=""progress""> [15/64]</br>number of points: 7</p>",,['stimuli/clover.png'],0.0,f,test,feedback,,,A-
,html-keyboard-response,97,263806,0.0-5.0-0.15,5f0c7ec1aabfdb45097524af,5ea9de15df734413226d7f0d,5f0c8a478985aa622a843b7f,True,0.47000000000000003,,,"<h2>Will the cat appear after this screen?</h2><div class=""J_key""><strong>Yes</strong> <br> (press J)</div><div class=""F_key""><strong>No</strong> <br> (press F)</div><p class=""progress""> [16/64]</br>number of points: 7</p>",,['stimuli/spade.png'],1.0,j,test,prepare,,,B+
,html-keyboard-response,98,264819,0.0-5.0-1.15,5f0c7ec1aabfdb45097524af,5ea9de15df734413226d7f0d,5f0c8a478985aa622a843b7f,True,0.47000000000000003,,1011.3099999725819,"<h2>Will the cat appear after this screen?</h2><div class=""J_key""><strong>Yes</strong> <br> (press J)</div><div class=""F_key""><strong>No</strong> <br> (press F)</div><div class=""central_stim""><img src=""stimuli/spade.png"" width=""30%"" style=""padding:2vmin""></div><p class=""progress""> [16/64]</br>number of points: 7</p>",74.0,['stimuli/spade.png'],1.0,j,test,main,1.0,,B+
,html-keyboard-response,99,266824,0.0-5.0-2.15,5f0c7ec1aabfdb45097524af,5ea9de15df734413226d7f0d,5f0c8a478985aa622a843b7f,True,0.47000000000000003,,,"<div class=""central_stim""><img src=""stimuli/cat.png"" class=""cat""></div><p class=""progress""> [16/64]</br>number of points: 8</p>",,['stimuli/spade.png'],1.0,j,test,feedback,,,B+
,html-keyboard-response,100,267327,0.0-5.0-0.16,5f0c7ec1aabfdb45097524af,5ea9de15df734413226d7f0d,5f0c8a478985aa622a843b7f,True,0.47000000000000003,,,"<h2>Will the cat appear after this screen?</h2><div class=""J_key""><strong>Yes</strong> <br> (press J)</div><div class=""F_key""><strong>No</strong> <br> (press F)</div><p class=""progress""> [17/64]</br>number of points: 8</p>",,"['stimuli/star.png', 'stimuli/plus.png']",0.0,f,test,prepare,,,CD-
,html-keyboard-response,101,268579,0.0-5.0-1.16,5f0c7ec1aabfdb45097524af,5ea9de15df734413226d7f0d,5f0c8a478985aa622a843b7f,True,0.47000000000000003,,1250.6849999772385,"<h2>Will the cat appear after this screen?</h2><div class=""J_key""><strong>Yes</strong> <br> (press J)</div><div class=""F_key""><strong>No</strong> <br> (press F)</div><div class=""central_stim""><img src=""stimuli/star.png"" width=""30%"" style=""padding:2vmin"">	<img src=""stimuli/plus.png"" width=""30%"" style=""padding:2vmin""></div><p class=""progress""> [17/64]</br>number of points: 8</p>",74.0,"['stimuli/star.png', 'stimuli/plus.png']",0.0,f,test,main,0.0,,CD-
,html-keyboard-response,102,270582,0.0-5.0-2.16,5f0c7ec1aabfdb45097524af,5ea9de15df734413226d7f0d,5f0c8a478985aa622a843b7f,True,0.47000000000000003,,,"<div class=""central_stim""></div><p class=""progress""> [17/64]</br>number of points: 8</p>",,"['stimuli/star.png', 'stimuli/plus.png']",0.0,f,test,feedback,,,CD-
,html-keyboard-response,103,271084,0.0-5.0-0.17,5f0c7ec1aabfdb45097524af,5ea9de15df734413226d7f0d,5f0c8a478985aa622a843b7f,True,0.47000000000000003,,,"<h2>Will the cat appear after this screen?</h2><div class=""J_key""><strong>Yes</strong> <br> (press J)</div><div class=""F_key""><strong>No</strong> <br> (press F)</div><p class=""progress""> [18/64]</br>number of points: 8</p>",,['stimuli/Q.png'],1.0,j,test,prepare,,,Q+
,html-keyboard-response,104,272452,0.0-5.0-1.17,5f0c7ec1aabfdb45097524af,5ea9de15df734413226d7f0d,5f0c8a478985aa622a843b7f,True,0.47000000000000003,,1366.0900000249967,"<h2>Will the cat appear after this screen?</h2><div class=""J_key""><strong>Yes</strong> <br> (press J)</div><div class=""F_key""><strong>No</strong> <br> (press F)</div><div class=""central_stim""><img src=""stimuli/Q.png"" width=""30%"" style=""padding:2vmin""></div><p class=""progress""> [18/64]</br>number of points: 8</p>",70.0,['stimuli/Q.png'],1.0,j,test,main,0.0,,Q+
,html-keyboard-response,105,274456,0.0-5.0-2.17,5f0c7ec1aabfdb45097524af,5ea9de15df734413226d7f0d,5f0c8a478985aa622a843b7f,True,0.47000000000000003,,,"<div class=""central_stim""><img src=""stimuli/cat.png"" class=""cat""></div><p class=""progress""> [18/64]</br>number of points: 8</p>",,['stimuli/Q.png'],1.0,j,test,feedback,,,Q+
,html-keyboard-response,106,274961,0.0-5.0-0.18,5f0c7ec1aabfdb45097524af,5ea9de15df734413226d7f0d,5f0c8a478985aa622a843b7f,True,0.47000000000000003,,,"<h2>Will the cat appear after this screen?</h2><div class=""J_key""><strong>Yes</strong> <br> (press J)</div><div class=""F_key""><strong>No</strong> <br> (press F)</div><p class=""progress""> [19/64]</br>number of points: 8</p>",,"['stimuli/hexagon.png', 'stimuli/up_facing.png']",1.0,j,test,prepare,,,EF+
,html-keyboard-response,107,276009,0.0-5.0-1.18,5f0c7ec1aabfdb45097524af,5ea9de15df734413226d7f0d,5f0c8a478985aa622a843b7f,True,0.47000000000000003,,1046.7049999861047,"<h2>Will the cat appear after this screen?</h2><div class=""J_key""><strong>Yes</strong> <br> (press J)</div><div class=""F_key""><strong>No</strong> <br> (press F)</div><div class=""central_stim""><img src=""stimuli/hexagon.png"" width=""30%"" style=""padding:2vmin"">	<img src=""stimuli/up_facing.png"" width=""30%"" style=""padding:2vmin""></div><p class=""progress""> [19/64]</br>number of points: 8</p>",74.0,"['stimuli/hexagon.png', 'stimuli/up_facing.png']",1.0,j,test,main,1.0,,EF+
,html-keyboard-response,108,278011,0.0-5.0-2.18,5f0c7ec1aabfdb45097524af,5ea9de15df734413226d7f0d,5f0c8a478985aa622a843b7f,True,0.47000000000000003,,,"<div class=""central_stim""><img src=""stimuli/cat.png"" class=""cat""></div><p class=""progress""> [19/64]</br>number of points: 9</p>",,"['stimuli/hexagon.png', 'stimuli/up_facing.png']",1.0,j,test,feedback,,,EF+
,html-keyboard-response,109,278516,0.0-5.0-0.19,5f0c7ec1aabfdb45097524af,5ea9de15df734413226d7f0d,5f0c8a478985aa622a843b7f,True,0.47000000000000003,,,"<h2>Will the cat appear after this screen?</h2><div class=""J_key""><strong>Yes</strong> <br> (press J)</div><div class=""F_key""><strong>No</strong> <br> (press F)</div><p class=""progress""> [20/64]</br>number of points: 9</p>",,['stimuli/clover.png'],0.0,f,test,prepare,,,A-
,html-keyboard-response,110,279891,0.0-5.0-1.19,5f0c7ec1aabfdb45097524af,5ea9de15df734413226d7f0d,5f0c8a478985aa622a843b7f,True,0.47000000000000003,,1373.5549999400973,"<h2>Will the cat appear after this screen?</h2><div class=""J_key""><strong>Yes</strong> <br> (press J)</div><div class=""F_key""><strong>No</strong> <br> (press F)</div><div class=""central_stim""><img src=""stimuli/clover.png"" width=""30%"" style=""padding:2vmin""></div><p class=""progress""> [20/64]</br>number of points: 9</p>",70.0,['stimuli/clover.png'],0.0,f,test,main,1.0,,A-
,html-keyboard-response,111,281892,0.0-5.0-2.19,5f0c7ec1aabfdb45097524af,5ea9de15df734413226d7f0d,5f0c8a478985aa622a843b7f,True,0.47000000000000003,,,"<div class=""central_stim""></div><p class=""progress""> [20/64]</br>number of points: 10</p>",,['stimuli/clover.png'],0.0,f,test,feedback,,,A-
,html-keyboard-response,112,282399,0.0-5.0-0.20,5f0c7ec1aabfdb45097524af,5ea9de15df734413226d7f0d,5f0c8a478985aa622a843b7f,True,0.47000000000000003,,,"<h2>Will the cat appear after this screen?</h2><div class=""J_key""><strong>Yes</strong> <br> (press J)</div><div class=""F_key""><strong>No</strong> <br> (press F)</div><p class=""progress""> [21/64]</br>number of points: 10</p>",,['stimuli/plus.png'],1.0,j,test,prepare,,,C+
,html-keyboard-response,113,283456,0.0-5.0-1.20,5f0c7ec1aabfdb45097524af,5ea9de15df734413226d7f0d,5f0c8a478985aa622a843b7f,True,0.47000000000000003,,1052.9899999964982,"<h2>Will the cat appear after this screen?</h2><div class=""J_key""><strong>Yes</strong> <br> (press J)</div><div class=""F_key""><strong>No</strong> <br> (press F)</div><div class=""central_stim""><img src=""stimuli/plus.png"" width=""30%"" style=""padding:2vmin""></div><p class=""progress""> [21/64]</br>number of points: 10</p>",74.0,['stimuli/plus.png'],1.0,j,test,main,1.0,,C+
,html-keyboard-response,114,285461,0.0-5.0-2.20,5f0c7ec1aabfdb45097524af,5ea9de15df734413226d7f0d,5f0c8a478985aa622a843b7f,True,0.47000000000000003,,,"<div class=""central_stim""><img src=""stimuli/cat.png"" class=""cat""></div><p class=""progress""> [21/64]</br>number of points: 11</p>",,['stimuli/plus.png'],1.0,j,test,feedback,,,C+
,html-keyboard-response,115,285968,0.0-5.0-0.21,5f0c7ec1aabfdb45097524af,5ea9de15df734413226d7f0d,5f0c8a478985aa622a843b7f,True,0.47000000000000003,,,"<h2>Will the cat appear after this screen?</h2><div class=""J_key""><strong>Yes</strong> <br> (press J)</div><div class=""F_key""><strong>No</strong> <br> (press F)</div><p class=""progress""> [22/64]</br>number of points: 11</p>",,['stimuli/O.png'],0.0,f,test,prepare,,,O-
,html-keyboard-response,116,287328,0.0-5.0-1.21,5f0c7ec1aabfdb45097524af,5ea9de15df734413226d7f0d,5f0c8a478985aa622a843b7f,True,0.47000000000000003,,1357.774999924004,"<h2>Will the cat appear after this screen?</h2><div class=""J_key""><strong>Yes</strong> <br> (press J)</div><div class=""F_key""><strong>No</strong> <br> (press F)</div><div class=""central_stim""><img src=""stimuli/O.png"" width=""30%"" style=""padding:2vmin""></div><p class=""progress""> [22/64]</br>number of points: 11</p>",70.0,['stimuli/O.png'],0.0,f,test,main,1.0,,O-
,html-keyboard-response,117,289333,0.0-5.0-2.21,5f0c7ec1aabfdb45097524af,5ea9de15df734413226d7f0d,5f0c8a478985aa622a843b7f,True,0.47000000000000003,,,"<div class=""central_stim""></div><p class=""progress""> [22/64]</br>number of points: 12</p>",,['stimuli/O.png'],0.0,f,test,feedback,,,O-
,html-keyboard-response,118,289836,0.0-5.0-0.22,5f0c7ec1aabfdb45097524af,5ea9de15df734413226d7f0d,5f0c8a478985aa622a843b7f,True,0.47000000000000003,,,"<h2>Will the cat appear after this screen?</h2><div class=""J_key""><strong>Yes</strong> <br> (press J)</div><div class=""F_key""><strong>No</strong> <br> (press F)</div><p class=""progress""> [23/64]</br>number of points: 12</p>",,['stimuli/spade.png'],1.0,j,test,prepare,,,B+
,html-keyboard-response,119,291116,0.0-5.0-1.22,5f0c7ec1aabfdb45097524af,5ea9de15df734413226d7f0d,5f0c8a478985aa622a843b7f,True,0.47000000000000003,,1279.1950000682846,"<h2>Will the cat appear after this screen?</h2><div class=""J_key""><strong>Yes</strong> <br> (press J)</div><div class=""F_key""><strong>No</strong> <br> (press F)</div><div class=""central_stim""><img src=""stimuli/spade.png"" width=""30%"" style=""padding:2vmin""></div><p class=""progress""> [23/64]</br>number of points: 12</p>",70.0,['stimuli/spade.png'],1.0,j,test,main,0.0,,B+
,html-keyboard-response,120,293123,0.0-5.0-2.22,5f0c7ec1aabfdb45097524af,5ea9de15df734413226d7f0d,5f0c8a478985aa622a843b7f,True,0.47000000000000003,,,"<div class=""central_stim""><img src=""stimuli/cat.png"" class=""cat""></div><p class=""progress""> [23/64]</br>number of points: 12</p>",,['stimuli/spade.png'],1.0,j,test,feedback,,,B+
,html-keyboard-response,121,293628,0.0-5.0-0.23,5f0c7ec1aabfdb45097524af,5ea9de15df734413226d7f0d,5f0c8a478985aa622a843b7f,True,0.47000000000000003,,,"<h2>Will the cat appear after this screen?</h2><div class=""J_key""><strong>Yes</strong> <br> (press J)</div><div class=""F_key""><strong>No</strong> <br> (press F)</div><p class=""progress""> [24/64]</br>number of points: 12</p>",,['stimuli/hexagon.png'],0.0,f,test,prepare,,,E-
,html-keyboard-response,122,294847,0.0-5.0-1.23,5f0c7ec1aabfdb45097524af,5ea9de15df734413226d7f0d,5f0c8a478985aa622a843b7f,True,0.47000000000000003,,1217.8950000088662,"<h2>Will the cat appear after this screen?</h2><div class=""J_key""><strong>Yes</strong> <br> (press J)</div><div class=""F_key""><strong>No</strong> <br> (press F)</div><div class=""central_stim""><img src=""stimuli/hexagon.png"" width=""30%"" style=""padding:2vmin""></div><p class=""progress""> [24/64]</br>number of points: 12</p>",74.0,['stimuli/hexagon.png'],0.0,f,test,main,0.0,,E-
,html-keyboard-response,123,296852,0.0-5.0-2.23,5f0c7ec1aabfdb45097524af,5ea9de15df734413226d7f0d,5f0c8a478985aa622a843b7f,True,0.47000000000000003,,,"<div class=""central_stim""></div><p class=""progress""> [24/64]</br>number of points: 12</p>",,['stimuli/hexagon.png'],0.0,f,test,feedback,,,E-
,html-keyboard-response,124,297354,0.0-5.0-0.24,5f0c7ec1aabfdb45097524af,5ea9de15df734413226d7f0d,5f0c8a478985aa622a843b7f,True,0.47000000000000003,,,"<h2>Will the cat appear after this screen?</h2><div class=""J_key""><strong>Yes</strong> <br> (press J)</div><div class=""F_key""><strong>No</strong> <br> (press F)</div><p class=""progress""> [25/64]</br>number of points: 12</p>",,"['stimuli/hexagon.png', 'stimuli/up_facing.png']",1.0,j,test,prepare,,,EF+
,html-keyboard-response,125,298977,0.0-5.0-1.24,5f0c7ec1aabfdb45097524af,5ea9de15df734413226d7f0d,5f0c8a478985aa622a843b7f,True,0.47000000000000003,,1621.184999938123,"<h2>Will the cat appear after this screen?</h2><div class=""J_key""><strong>Yes</strong> <br> (press J)</div><div class=""F_key""><strong>No</strong> <br> (press F)</div><div class=""central_stim""><img src=""stimuli/up_facing.png"" width=""30%"" style=""padding:2vmin"">	<img src=""stimuli/hexagon.png"" width=""30%"" style=""padding:2vmin""></div><p class=""progress""> [25/64]</br>number of points: 12</p>",74.0,"['stimuli/hexagon.png', 'stimuli/up_facing.png']",1.0,j,test,main,1.0,,EF+
,html-keyboard-response,126,300982,0.0-5.0-2.24,5f0c7ec1aabfdb45097524af,5ea9de15df734413226d7f0d,5f0c8a478985aa622a843b7f,True,0.47000000000000003,,,"<div class=""central_stim""><img src=""stimuli/cat.png"" class=""cat""></div><p class=""progress""> [25/64]</br>number of points: 13</p>",,"['stimuli/hexagon.png', 'stimuli/up_facing.png']",1.0,j,test,feedback,,,EF+
,html-keyboard-response,127,301489,0.0-5.0-0.25,5f0c7ec1aabfdb45097524af,5ea9de15df734413226d7f0d,5f0c8a478985aa622a843b7f,True,0.47000000000000003,,,"<h2>Will the cat appear after this screen?</h2><div class=""J_key""><strong>Yes</strong> <br> (press J)</div><div class=""F_key""><strong>No</strong> <br> (press F)</div><p class=""progress""> [26/64]</br>number of points: 13</p>",,"['stimuli/star.png', 'stimuli/plus.png']",0.0,f,test,prepare,,,CD-
,html-keyboard-response,128,303001,0.0-5.0-1.25,5f0c7ec1aabfdb45097524af,5ea9de15df734413226d7f0d,5f0c8a478985aa622a843b7f,True,0.47000000000000003,,1509.8350000334904,"<h2>Will the cat appear after this screen?</h2><div class=""J_key""><strong>Yes</strong> <br> (press J)</div><div class=""F_key""><strong>No</strong> <br> (press F)</div><div class=""central_stim""><img src=""stimuli/plus.png"" width=""30%"" style=""padding:2vmin"">	<img src=""stimuli/star.png"" width=""30%"" style=""padding:2vmin""></div><p class=""progress""> [26/64]</br>number of points: 13</p>",70.0,"['stimuli/star.png', 'stimuli/plus.png']",0.0,f,test,main,1.0,,CD-
,html-keyboard-response,129,305003,0.0-5.0-2.25,5f0c7ec1aabfdb45097524af,5ea9de15df734413226d7f0d,5f0c8a478985aa622a843b7f,True,0.47000000000000003,,,"<div class=""central_stim""></div><p class=""progress""> [26/64]</br>number of points: 14</p>",,"['stimuli/star.png', 'stimuli/plus.png']",0.0,f,test,feedback,,,CD-
,html-keyboard-response,130,305506,0.0-5.0-0.26,5f0c7ec1aabfdb45097524af,5ea9de15df734413226d7f0d,5f0c8a478985aa622a843b7f,True,0.47000000000000003,,,"<h2>Will the cat appear after this screen?</h2><div class=""J_key""><strong>Yes</strong> <br> (press J)</div><div class=""F_key""><strong>No</strong> <br> (press F)</div><p class=""progress""> [27/64]</br>number of points: 14</p>",,['stimuli/Q.png'],1.0,j,test,prepare,,,Q+
,html-keyboard-response,131,306714,0.0-5.0-1.26,5f0c7ec1aabfdb45097524af,5ea9de15df734413226d7f0d,5f0c8a478985aa622a843b7f,True,0.47000000000000003,,1203.5850000102073,"<h2>Will the cat appear after this screen?</h2><div class=""J_key""><strong>Yes</strong> <br> (press J)</div><div class=""F_key""><strong>No</strong> <br> (press F)</div><div class=""central_stim""><img src=""stimuli/Q.png"" width=""30%"" style=""padding:2vmin""></div><p class=""progress""> [27/64]</br>number of points: 14</p>",74.0,['stimuli/Q.png'],1.0,j,test,main,1.0,,Q+
,html-keyboard-response,132,308719,0.0-5.0-2.26,5f0c7ec1aabfdb45097524af,5ea9de15df734413226d7f0d,5f0c8a478985aa622a843b7f,True,0.47000000000000003,,,"<div class=""central_stim""><img src=""stimuli/cat.png"" class=""cat""></div><p class=""progress""> [27/64]</br>number of points: 15</p>",,['stimuli/Q.png'],1.0,j,test,feedback,,,Q+
,html-keyboard-response,133,309225,0.0-5.0-0.27,5f0c7ec1aabfdb45097524af,5ea9de15df734413226d7f0d,5f0c8a478985aa622a843b7f,True,0.47000000000000003,,,"<h2>Will the cat appear after this screen?</h2><div class=""J_key""><strong>Yes</strong> <br> (press J)</div><div class=""F_key""><strong>No</strong> <br> (press F)</div><p class=""progress""> [28/64]</br>number of points: 15</p>",,['stimuli/spade.png'],1.0,j,test,prepare,,,B+
,html-keyboard-response,134,311964,0.0-5.0-1.27,5f0c7ec1aabfdb45097524af,5ea9de15df734413226d7f0d,5f0c8a478985aa622a843b7f,True,0.47000000000000003,,2735.6150000123307,"<h2>Will the cat appear after this screen?</h2><div class=""J_key""><strong>Yes</strong> <br> (press J)</div><div class=""F_key""><strong>No</strong> <br> (press F)</div><div class=""central_stim""><img src=""stimuli/spade.png"" width=""30%"" style=""padding:2vmin""></div><p class=""progress""> [28/64]</br>number of points: 15</p>",74.0,['stimuli/spade.png'],1.0,j,test,main,1.0,,B+
,html-keyboard-response,135,313968,0.0-5.0-2.27,5f0c7ec1aabfdb45097524af,5ea9de15df734413226d7f0d,5f0c8a478985aa622a843b7f,True,0.47000000000000003,,,"<div class=""central_stim""><img src=""stimuli/cat.png"" class=""cat""></div><p class=""progress""> [28/64]</br>number of points: 16</p>",,['stimuli/spade.png'],1.0,j,test,feedback,,,B+
,html-keyboard-response,136,314474,0.0-5.0-0.28,5f0c7ec1aabfdb45097524af,5ea9de15df734413226d7f0d,5f0c8a478985aa622a843b7f,True,0.47000000000000003,,,"<h2>Will the cat appear after this screen?</h2><div class=""J_key""><strong>Yes</strong> <br> (press J)</div><div class=""F_key""><strong>No</strong> <br> (press F)</div><p class=""progress""> [29/64]</br>number of points: 16</p>",,['stimuli/O.png'],0.0,f,test,prepare,,,O-
,html-keyboard-response,137,315825,0.0-5.0-1.28,5f0c7ec1aabfdb45097524af,5ea9de15df734413226d7f0d,5f0c8a478985aa622a843b7f,True,0.47000000000000003,,1348.1900000479072,"<h2>Will the cat appear after this screen?</h2><div class=""J_key""><strong>Yes</strong> <br> (press J)</div><div class=""F_key""><strong>No</strong> <br> (press F)</div><div class=""central_stim""><img src=""stimuli/O.png"" width=""30%"" style=""padding:2vmin""></div><p class=""progress""> [29/64]</br>number of points: 16</p>",70.0,['stimuli/O.png'],0.0,f,test,main,1.0,,O-
,html-keyboard-response,138,317830,0.0-5.0-2.28,5f0c7ec1aabfdb45097524af,5ea9de15df734413226d7f0d,5f0c8a478985aa622a843b7f,True,0.47000000000000003,,,"<div class=""central_stim""></div><p class=""progress""> [29/64]</br>number of points: 17</p>",,['stimuli/O.png'],0.0,f,test,feedback,,,O-
,html-keyboard-response,139,318336,0.0-5.0-0.29,5f0c7ec1aabfdb45097524af,5ea9de15df734413226d7f0d,5f0c8a478985aa622a843b7f,True,0.47000000000000003,,,"<h2>Will the cat appear after this screen?</h2><div class=""J_key""><strong>Yes</strong> <br> (press J)</div><div class=""F_key""><strong>No</strong> <br> (press F)</div><p class=""progress""> [30/64]</br>number of points: 17</p>",,['stimuli/plus.png'],1.0,j,test,prepare,,,C+
,html-keyboard-response,140,320622,0.0-5.0-1.29,5f0c7ec1aabfdb45097524af,5ea9de15df734413226d7f0d,5f0c8a478985aa622a843b7f,True,0.47000000000000003,,2283.2749999361113,"<h2>Will the cat appear after this screen?</h2><div class=""J_key""><strong>Yes</strong> <br> (press J)</div><div class=""F_key""><strong>No</strong> <br> (press F)</div><div class=""central_stim""><img src=""stimuli/plus.png"" width=""30%"" style=""padding:2vmin""></div><p class=""progress""> [30/64]</br>number of points: 17</p>",70.0,['stimuli/plus.png'],1.0,j,test,main,0.0,,C+
,html-keyboard-response,141,322623,0.0-5.0-2.29,5f0c7ec1aabfdb45097524af,5ea9de15df734413226d7f0d,5f0c8a478985aa622a843b7f,True,0.47000000000000003,,,"<div class=""central_stim""><img src=""stimuli/cat.png"" class=""cat""></div><p class=""progress""> [30/64]</br>number of points: 17</p>",,['stimuli/plus.png'],1.0,j,test,feedback,,,C+
,html-keyboard-response,142,323127,0.0-5.0-0.30,5f0c7ec1aabfdb45097524af,5ea9de15df734413226d7f0d,5f0c8a478985aa622a843b7f,True,0.47000000000000003,,,"<h2>Will the cat appear after this screen?</h2><div class=""J_key""><strong>Yes</strong> <br> (press J)</div><div class=""F_key""><strong>No</strong> <br> (press F)</div><p class=""progress""> [31/64]</br>number of points: 17</p>",,['stimuli/hexagon.png'],0.0,f,test,prepare,,,E-
,html-keyboard-response,143,324493,0.0-5.0-1.30,5f0c7ec1aabfdb45097524af,5ea9de15df734413226d7f0d,5f0c8a478985aa622a843b7f,True,0.47000000000000003,,1364.5399999804795,"<h2>Will the cat appear after this screen?</h2><div class=""J_key""><strong>Yes</strong> <br> (press J)</div><div class=""F_key""><strong>No</strong> <br> (press F)</div><div class=""central_stim""><img src=""stimuli/hexagon.png"" width=""30%"" style=""padding:2vmin""></div><p class=""progress""> [31/64]</br>number of points: 17</p>",74.0,['stimuli/hexagon.png'],0.0,f,test,main,0.0,,E-
,html-keyboard-response,144,326496,0.0-5.0-2.30,5f0c7ec1aabfdb45097524af,5ea9de15df734413226d7f0d,5f0c8a478985aa622a843b7f,True,0.47000000000000003,,,"<div class=""central_stim""></div><p class=""progress""> [31/64]</br>number of points: 17</p>",,['stimuli/hexagon.png'],0.0,f,test,feedback,,,E-
,html-keyboard-response,145,327001,0.0-5.0-0.31,5f0c7ec1aabfdb45097524af,5ea9de15df734413226d7f0d,5f0c8a478985aa622a843b7f,True,0.47000000000000003,,,"<h2>Will the cat appear after this screen?</h2><div class=""J_key""><strong>Yes</strong> <br> (press J)</div><div class=""F_key""><strong>No</strong> <br> (press F)</div><p class=""progress""> [32/64]</br>number of points: 17</p>",,['stimuli/clover.png'],0.0,f,test,prepare,,,A-
,html-keyboard-response,146,328677,0.0-5.0-1.31,5f0c7ec1aabfdb45097524af,5ea9de15df734413226d7f0d,5f0c8a478985aa622a843b7f,True,0.47000000000000003,,1672.4900000263005,"<h2>Will the cat appear after this screen?</h2><div class=""J_key""><strong>Yes</strong> <br> (press J)</div><div class=""F_key""><strong>No</strong> <br> (press F)</div><div class=""central_stim""><img src=""stimuli/clover.png"" width=""30%"" style=""padding:2vmin""></div><p class=""progress""> [32/64]</br>number of points: 17</p>",70.0,['stimuli/clover.png'],0.0,f,test,main,1.0,,A-
,html-keyboard-response,147,330681,0.0-5.0-2.31,5f0c7ec1aabfdb45097524af,5ea9de15df734413226d7f0d,5f0c8a478985aa622a843b7f,True,0.47000000000000003,,,"<div class=""central_stim""></div><p class=""progress""> [32/64]</br>number of points: 18</p>",,['stimuli/clover.png'],0.0,f,test,feedback,,,A-
,instructions,148,373589,0.0-6.0,5f0c7ec1aabfdb45097524af,5ea9de15df734413226d7f0d,5f0c8a478985aa622a843b7f,True,0.47000000000000003,"[{""page_index"":0,""viewing_time"":42904.44499999285}]",42906.52499999851,,,,,,,,,,
,html-keyboard-response,149,374097,0.0-7.0-0.0,5f0c7ec1aabfdb45097524af,5ea9de15df734413226d7f0d,5f0c8a478985aa622a843b7f,True,0.47000000000000003,,,"<h2>Will the cat appear after this screen?</h2><div class=""J_key""><strong>Yes</strong> <br> (press J)</div><div class=""F_key""><strong>No</strong> <br> (press F)</div><p class=""progress""> [33/64]</br>number of points: 18</p>",,['stimuli/plus.png'],1.0,j,test,prepare,,,C+
,html-keyboard-response,150,379104,0.0-7.0-1.0,5f0c7ec1aabfdb45097524af,5ea9de15df734413226d7f0d,5f0c8a478985aa622a843b7f,True,0.47000000000000003,,,"<h2>Will the cat appear after this screen?</h2><div class=""J_key""><strong>Yes</strong> <br> (press J)</div><div class=""F_key""><strong>No</strong> <br> (press F)</div><div class=""central_stim""><img src=""stimuli/plus.png"" width=""30%"" style=""padding:2vmin""></div><p class=""progress""> [33/64]</br>number of points: 18</p>",,['stimuli/plus.png'],1.0,j,test,main,,,C+
,html-keyboard-response,151,381112,0.0-7.0-2.0,5f0c7ec1aabfdb45097524af,5ea9de15df734413226d7f0d,5f0c8a478985aa622a843b7f,True,0.47000000000000003,,,"<div class=""central_stim""><img src=""stimuli/cat.png"" class=""cat""></div><p class=""progress""> [33/64]</br>number of points: 18</p>",,['stimuli/plus.png'],1.0,j,test,feedback,,,C+
,html-keyboard-response,152,381617,0.0-7.0-0.1,5f0c7ec1aabfdb45097524af,5ea9de15df734413226d7f0d,5f0c8a478985aa622a843b7f,True,0.47000000000000003,,,"<h2>Will the cat appear after this screen?</h2><div class=""J_key""><strong>Yes</strong> <br> (press J)</div><div class=""F_key""><strong>No</strong> <br> (press F)</div><p class=""progress""> [34/64]</br>number of points: 18</p>",,['stimuli/hexagon.png'],0.0,f,test,prepare,,,E-
,html-keyboard-response,153,383016,0.0-7.0-1.1,5f0c7ec1aabfdb45097524af,5ea9de15df734413226d7f0d,5f0c8a478985aa622a843b7f,True,0.47000000000000003,,1396.7750000301749,"<h2>Will the cat appear after this screen?</h2><div class=""J_key""><strong>Yes</strong> <br> (press J)</div><div class=""F_key""><strong>No</strong> <br> (press F)</div><div class=""central_stim""><img src=""stimuli/hexagon.png"" width=""30%"" style=""padding:2vmin""></div><p class=""progress""> [34/64]</br>number of points: 18</p>",70.0,['stimuli/hexagon.png'],0.0,f,test,main,1.0,,E-
,html-keyboard-response,154,385018,0.0-7.0-2.1,5f0c7ec1aabfdb45097524af,5ea9de15df734413226d7f0d,5f0c8a478985aa622a843b7f,True,0.47000000000000003,,,"<div class=""central_stim""></div><p class=""progress""> [34/64]</br>number of points: 19</p>",,['stimuli/hexagon.png'],0.0,f,test,feedback,,,E-
,html-keyboard-response,155,385523,0.0-7.0-0.2,5f0c7ec1aabfdb45097524af,5ea9de15df734413226d7f0d,5f0c8a478985aa622a843b7f,True,0.47000000000000003,,,"<h2>Will the cat appear after this screen?</h2><div class=""J_key""><strong>Yes</strong> <br> (press J)</div><div class=""F_key""><strong>No</strong> <br> (press F)</div><p class=""progress""> [35/64]</br>number of points: 19</p>",,"['stimuli/hexagon.png', 'stimuli/up_facing.png']",1.0,j,test,prepare,,,EF+
,html-keyboard-response,156,386342,0.0-7.0-1.2,5f0c7ec1aabfdb45097524af,5ea9de15df734413226d7f0d,5f0c8a478985aa622a843b7f,True,0.47000000000000003,,816.5400000289083,"<h2>Will the cat appear after this screen?</h2><div class=""J_key""><strong>Yes</strong> <br> (press J)</div><div class=""F_key""><strong>No</strong> <br> (press F)</div><div class=""central_stim""><img src=""stimuli/hexagon.png"" width=""30%"" style=""padding:2vmin"">	<img src=""stimuli/up_facing.png"" width=""30%"" style=""padding:2vmin""></div><p class=""progress""> [35/64]</br>number of points: 19</p>",74.0,"['stimuli/hexagon.png', 'stimuli/up_facing.png']",1.0,j,test,main,1.0,,EF+
,html-keyboard-response,157,388350,0.0-7.0-2.2,5f0c7ec1aabfdb45097524af,5ea9de15df734413226d7f0d,5f0c8a478985aa622a843b7f,True,0.47000000000000003,,,"<div class=""central_stim""><img src=""stimuli/cat.png"" class=""cat""></div><p class=""progress""> [35/64]</br>number of points: 20</p>",,"['stimuli/hexagon.png', 'stimuli/up_facing.png']",1.0,j,test,feedback,,,EF+
,html-keyboard-response,158,388855,0.0-7.0-0.3,5f0c7ec1aabfdb45097524af,5ea9de15df734413226d7f0d,5f0c8a478985aa622a843b7f,True,0.47000000000000003,,,"<h2>Will the cat appear after this screen?</h2><div class=""J_key""><strong>Yes</strong> <br> (press J)</div><div class=""F_key""><strong>No</strong> <br> (press F)</div><p class=""progress""> [36/64]</br>number of points: 20</p>",,['stimuli/spade.png'],1.0,j,test,prepare,,,B+
,html-keyboard-response,159,389943,0.0-7.0-1.3,5f0c7ec1aabfdb45097524af,5ea9de15df734413226d7f0d,5f0c8a478985aa622a843b7f,True,0.47000000000000003,,1086.115000071004,"<h2>Will the cat appear after this screen?</h2><div class=""J_key""><strong>Yes</strong> <br> (press J)</div><div class=""F_key""><strong>No</strong> <br> (press F)</div><div class=""central_stim""><img src=""stimuli/spade.png"" width=""30%"" style=""padding:2vmin""></div><p class=""progress""> [36/64]</br>number of points: 20</p>",74.0,['stimuli/spade.png'],1.0,j,test,main,1.0,,B+
,html-keyboard-response,160,391949,0.0-7.0-2.3,5f0c7ec1aabfdb45097524af,5ea9de15df734413226d7f0d,5f0c8a478985aa622a843b7f,True,0.47000000000000003,,,"<div class=""central_stim""><img src=""stimuli/cat.png"" class=""cat""></div><p class=""progress""> [36/64]</br>number of points: 21</p>",,['stimuli/spade.png'],1.0,j,test,feedback,,,B+
,html-keyboard-response,161,392455,0.0-7.0-0.4,5f0c7ec1aabfdb45097524af,5ea9de15df734413226d7f0d,5f0c8a478985aa622a843b7f,True,0.47000000000000003,,,"<h2>Will the cat appear after this screen?</h2><div class=""J_key""><strong>Yes</strong> <br> (press J)</div><div class=""F_key""><strong>No</strong> <br> (press F)</div><p class=""progress""> [37/64]</br>number of points: 21</p>",,['stimuli/Q.png'],1.0,j,test,prepare,,,Q+
,html-keyboard-response,162,393416,0.0-7.0-1.4,5f0c7ec1aabfdb45097524af,5ea9de15df734413226d7f0d,5f0c8a478985aa622a843b7f,True,0.47000000000000003,,952.1899999817833,"<h2>Will the cat appear after this screen?</h2><div class=""J_key""><strong>Yes</strong> <br> (press J)</div><div class=""F_key""><strong>No</strong> <br> (press F)</div><div class=""central_stim""><img src=""stimuli/Q.png"" width=""30%"" style=""padding:2vmin""></div><p class=""progress""> [37/64]</br>number of points: 21</p>",74.0,['stimuli/Q.png'],1.0,j,test,main,1.0,,Q+
,html-keyboard-response,163,395419,0.0-7.0-2.4,5f0c7ec1aabfdb45097524af,5ea9de15df734413226d7f0d,5f0c8a478985aa622a843b7f,True,0.47000000000000003,,,"<div class=""central_stim""><img src=""stimuli/cat.png"" class=""cat""></div><p class=""progress""> [37/64]</br>number of points: 22</p>",,['stimuli/Q.png'],1.0,j,test,feedback,,,Q+
,html-keyboard-response,164,395924,0.0-7.0-0.5,5f0c7ec1aabfdb45097524af,5ea9de15df734413226d7f0d,5f0c8a478985aa622a843b7f,True,0.47000000000000003,,,"<h2>Will the cat appear after this screen?</h2><div class=""J_key""><strong>Yes</strong> <br> (press J)</div><div class=""F_key""><strong>No</strong> <br> (press F)</div><p class=""progress""> [38/64]</br>number of points: 22</p>",,"['stimuli/star.png', 'stimuli/plus.png']",0.0,f,test,prepare,,,CD-
,html-keyboard-response,165,397145,0.0-7.0-1.5,5f0c7ec1aabfdb45097524af,5ea9de15df734413226d7f0d,5f0c8a478985aa622a843b7f,True,0.47000000000000003,,1214.254999998957,"<h2>Will the cat appear after this screen?</h2><div class=""J_key""><strong>Yes</strong> <br> (press J)</div><div class=""F_key""><strong>No</strong> <br> (press F)</div><div class=""central_stim""><img src=""stimuli/plus.png"" width=""30%"" style=""padding:2vmin"">	<img src=""stimuli/star.png"" width=""30%"" style=""padding:2vmin""></div><p class=""progress""> [38/64]</br>number of points: 22</p>",70.0,"['stimuli/star.png', 'stimuli/plus.png']",0.0,f,test,main,1.0,,CD-
,html-keyboard-response,166,399148,0.0-7.0-2.5,5f0c7ec1aabfdb45097524af,5ea9de15df734413226d7f0d,5f0c8a478985aa622a843b7f,True,0.47000000000000003,,,"<div class=""central_stim""></div><p class=""progress""> [38/64]</br>number of points: 23</p>",,"['stimuli/star.png', 'stimuli/plus.png']",0.0,f,test,feedback,,,CD-
,html-keyboard-response,167,399658,0.0-7.0-0.6,5f0c7ec1aabfdb45097524af,5ea9de15df734413226d7f0d,5f0c8a478985aa622a843b7f,True,0.47000000000000003,,,"<h2>Will the cat appear after this screen?</h2><div class=""J_key""><strong>Yes</strong> <br> (press J)</div><div class=""F_key""><strong>No</strong> <br> (press F)</div><p class=""progress""> [39/64]</br>number of points: 23</p>",,['stimuli/O.png'],0.0,f,test,prepare,,,O-
,html-keyboard-response,168,401070,0.0-7.0-1.6,5f0c7ec1aabfdb45097524af,5ea9de15df734413226d7f0d,5f0c8a478985aa622a843b7f,True,0.47000000000000003,,1407.9299999866635,"<h2>Will the cat appear after this screen?</h2><div class=""J_key""><strong>Yes</strong> <br> (press J)</div><div class=""F_key""><strong>No</strong> <br> (press F)</div><div class=""central_stim""><img src=""stimuli/O.png"" width=""30%"" style=""padding:2vmin""></div><p class=""progress""> [39/64]</br>number of points: 23</p>",70.0,['stimuli/O.png'],0.0,f,test,main,1.0,,O-
,html-keyboard-response,169,403075,0.0-7.0-2.6,5f0c7ec1aabfdb45097524af,5ea9de15df734413226d7f0d,5f0c8a478985aa622a843b7f,True,0.47000000000000003,,,"<div class=""central_stim""></div><p class=""progress""> [39/64]</br>number of points: 24</p>",,['stimuli/O.png'],0.0,f,test,feedback,,,O-
,html-keyboard-response,170,403577,0.0-7.0-0.7,5f0c7ec1aabfdb45097524af,5ea9de15df734413226d7f0d,5f0c8a478985aa622a843b7f,True,0.47000000000000003,,,"<h2>Will the cat appear after this screen?</h2><div class=""J_key""><strong>Yes</strong> <br> (press J)</div><div class=""F_key""><strong>No</strong> <br> (press F)</div><p class=""progress""> [40/64]</br>number of points: 24</p>",,['stimuli/clover.png'],0.0,f,test,prepare,,,A-
,html-keyboard-response,171,404742,0.0-7.0-1.7,5f0c7ec1aabfdb45097524af,5ea9de15df734413226d7f0d,5f0c8a478985aa622a843b7f,True,0.47000000000000003,,1163.484999909997,"<h2>Will the cat appear after this screen?</h2><div class=""J_key""><strong>Yes</strong> <br> (press J)</div><div class=""F_key""><strong>No</strong> <br> (press F)</div><div class=""central_stim""><img src=""stimuli/clover.png"" width=""30%"" style=""padding:2vmin""></div><p class=""progress""> [40/64]</br>number of points: 24</p>",70.0,['stimuli/clover.png'],0.0,f,test,main,1.0,,A-
,html-keyboard-response,172,406745,0.0-7.0-2.7,5f0c7ec1aabfdb45097524af,5ea9de15df734413226d7f0d,5f0c8a478985aa622a843b7f,True,0.47000000000000003,,,"<div class=""central_stim""></div><p class=""progress""> [40/64]</br>number of points: 25</p>",,['stimuli/clover.png'],0.0,f,test,feedback,,,A-
,html-keyboard-response,173,407247,0.0-7.0-0.8,5f0c7ec1aabfdb45097524af,5ea9de15df734413226d7f0d,5f0c8a478985aa622a843b7f,True,0.47000000000000003,,,"<h2>Will the cat appear after this screen?</h2><div class=""J_key""><strong>Yes</strong> <br> (press J)</div><div class=""F_key""><strong>No</strong> <br> (press F)</div><p class=""progress""> [41/64]</br>number of points: 25</p>",,['stimuli/Q.png'],1.0,j,test,prepare,,,Q+
,html-keyboard-response,174,408536,0.0-7.0-1.8,5f0c7ec1aabfdb45097524af,5ea9de15df734413226d7f0d,5f0c8a478985aa622a843b7f,True,0.47000000000000003,,1286.8299999972805,"<h2>Will the cat appear after this screen?</h2><div class=""J_key""><strong>Yes</strong> <br> (press J)</div><div class=""F_key""><strong>No</strong> <br> (press F)</div><div class=""central_stim""><img src=""stimuli/Q.png"" width=""30%"" style=""padding:2vmin""></div><p class=""progress""> [41/64]</br>number of points: 25</p>",74.0,['stimuli/Q.png'],1.0,j,test,main,1.0,,Q+
,html-keyboard-response,175,410541,0.0-7.0-2.8,5f0c7ec1aabfdb45097524af,5ea9de15df734413226d7f0d,5f0c8a478985aa622a843b7f,True,0.47000000000000003,,,"<div class=""central_stim""><img src=""stimuli/cat.png"" class=""cat""></div><p class=""progress""> [41/64]</br>number of points: 26</p>",,['stimuli/Q.png'],1.0,j,test,feedback,,,Q+
,html-keyboard-response,176,411048,0.0-7.0-0.9,5f0c7ec1aabfdb45097524af,5ea9de15df734413226d7f0d,5f0c8a478985aa622a843b7f,True,0.47000000000000003,,,"<h2>Will the cat appear after this screen?</h2><div class=""J_key""><strong>Yes</strong> <br> (press J)</div><div class=""F_key""><strong>No</strong> <br> (press F)</div><p class=""progress""> [42/64]</br>number of points: 26</p>",,"['stimuli/hexagon.png', 'stimuli/up_facing.png']",1.0,j,test,prepare,,,EF+
,html-keyboard-response,177,412327,0.0-7.0-1.9,5f0c7ec1aabfdb45097524af,5ea9de15df734413226d7f0d,5f0c8a478985aa622a843b7f,True,0.47000000000000003,,1276.9449999323115,"<h2>Will the cat appear after this screen?</h2><div class=""J_key""><strong>Yes</strong> <br> (press J)</div><div class=""F_key""><strong>No</strong> <br> (press F)</div><div class=""central_stim""><img src=""stimuli/hexagon.png"" width=""30%"" style=""padding:2vmin"">	<img src=""stimuli/up_facing.png"" width=""30%"" style=""padding:2vmin""></div><p class=""progress""> [42/64]</br>number of points: 26</p>",74.0,"['stimuli/hexagon.png', 'stimuli/up_facing.png']",1.0,j,test,main,1.0,,EF+
,html-keyboard-response,178,414330,0.0-7.0-2.9,5f0c7ec1aabfdb45097524af,5ea9de15df734413226d7f0d,5f0c8a478985aa622a843b7f,True,0.47000000000000003,,,"<div class=""central_stim""><img src=""stimuli/cat.png"" class=""cat""></div><p class=""progress""> [42/64]</br>number of points: 27</p>",,"['stimuli/hexagon.png', 'stimuli/up_facing.png']",1.0,j,test,feedback,,,EF+
,html-keyboard-response,179,414834,0.0-7.0-0.10,5f0c7ec1aabfdb45097524af,5ea9de15df734413226d7f0d,5f0c8a478985aa622a843b7f,True,0.47000000000000003,,,"<h2>Will the cat appear after this screen?</h2><div class=""J_key""><strong>Yes</strong> <br> (press J)</div><div class=""F_key""><strong>No</strong> <br> (press F)</div><p class=""progress""> [43/64]</br>number of points: 27</p>",,['stimuli/O.png'],0.0,f,test,prepare,,,O-
,html-keyboard-response,180,416139,0.0-7.0-1.10,5f0c7ec1aabfdb45097524af,5ea9de15df734413226d7f0d,5f0c8a478985aa622a843b7f,True,0.47000000000000003,,1302.1100000478327,"<h2>Will the cat appear after this screen?</h2><div class=""J_key""><strong>Yes</strong> <br> (press J)</div><div class=""F_key""><strong>No</strong> <br> (press F)</div><div class=""central_stim""><img src=""stimuli/O.png"" width=""30%"" style=""padding:2vmin""></div><p class=""progress""> [43/64]</br>number of points: 27</p>",70.0,['stimuli/O.png'],0.0,f,test,main,1.0,,O-
,html-keyboard-response,181,418143,0.0-7.0-2.10,5f0c7ec1aabfdb45097524af,5ea9de15df734413226d7f0d,5f0c8a478985aa622a843b7f,True,0.47000000000000003,,,"<div class=""central_stim""></div><p class=""progress""> [43/64]</br>number of points: 28</p>",,['stimuli/O.png'],0.0,f,test,feedback,,,O-
,html-keyboard-response,182,418647,0.0-7.0-0.11,5f0c7ec1aabfdb45097524af,5ea9de15df734413226d7f0d,5f0c8a478985aa622a843b7f,True,0.47000000000000003,,,"<h2>Will the cat appear after this screen?</h2><div class=""J_key""><strong>Yes</strong> <br> (press J)</div><div class=""F_key""><strong>No</strong> <br> (press F)</div><p class=""progress""> [44/64]</br>number of points: 28</p>",,['stimuli/plus.png'],1.0,j,test,prepare,,,C+
,html-keyboard-response,183,419719,0.0-7.0-1.11,5f0c7ec1aabfdb45097524af,5ea9de15df734413226d7f0d,5f0c8a478985aa622a843b7f,True,0.47000000000000003,,1069.5950000081211,"<h2>Will the cat appear after this screen?</h2><div class=""J_key""><strong>Yes</strong> <br> (press J)</div><div class=""F_key""><strong>No</strong> <br> (press F)</div><div class=""central_stim""><img src=""stimuli/plus.png"" width=""30%"" style=""padding:2vmin""></div><p class=""progress""> [44/64]</br>number of points: 28</p>",70.0,['stimuli/plus.png'],1.0,j,test,main,0.0,,C+
,html-keyboard-response,184,421722,0.0-7.0-2.11,5f0c7ec1aabfdb45097524af,5ea9de15df734413226d7f0d,5f0c8a478985aa622a843b7f,True,0.47000000000000003,,,"<div class=""central_stim""><img src=""stimuli/cat.png"" class=""cat""></div><p class=""progress""> [44/64]</br>number of points: 28</p>",,['stimuli/plus.png'],1.0,j,test,feedback,,,C+
,html-keyboard-response,185,422228,0.0-7.0-0.12,5f0c7ec1aabfdb45097524af,5ea9de15df734413226d7f0d,5f0c8a478985aa622a843b7f,True,0.47000000000000003,,,"<h2>Will the cat appear after this screen?</h2><div class=""J_key""><strong>Yes</strong> <br> (press J)</div><div class=""F_key""><strong>No</strong> <br> (press F)</div><p class=""progress""> [45/64]</br>number of points: 28</p>",,['stimuli/hexagon.png'],0.0,f,test,prepare,,,E-
,html-keyboard-response,186,423307,0.0-7.0-1.12,5f0c7ec1aabfdb45097524af,5ea9de15df734413226d7f0d,5f0c8a478985aa622a843b7f,True,0.47000000000000003,,1077.1350000286475,"<h2>Will the cat appear after this screen?</h2><div class=""J_key""><strong>Yes</strong> <br> (press J)</div><div class=""F_key""><strong>No</strong> <br> (press F)</div><div class=""central_stim""><img src=""stimuli/hexagon.png"" width=""30%"" style=""padding:2vmin""></div><p class=""progress""> [45/64]</br>number of points: 28</p>",70.0,['stimuli/hexagon.png'],0.0,f,test,main,1.0,,E-
,html-keyboard-response,187,425309,0.0-7.0-2.12,5f0c7ec1aabfdb45097524af,5ea9de15df734413226d7f0d,5f0c8a478985aa622a843b7f,True,0.47000000000000003,,,"<div class=""central_stim""></div><p class=""progress""> [45/64]</br>number of points: 29</p>",,['stimuli/hexagon.png'],0.0,f,test,feedback,,,E-
,html-keyboard-response,188,425814,0.0-7.0-0.13,5f0c7ec1aabfdb45097524af,5ea9de15df734413226d7f0d,5f0c8a478985aa622a843b7f,True,0.47000000000000003,,,"<h2>Will the cat appear after this screen?</h2><div class=""J_key""><strong>Yes</strong> <br> (press J)</div><div class=""F_key""><strong>No</strong> <br> (press F)</div><p class=""progress""> [46/64]</br>number of points: 29</p>",,['stimuli/spade.png'],1.0,j,test,prepare,,,B+
,html-keyboard-response,189,427523,0.0-7.0-1.13,5f0c7ec1aabfdb45097524af,5ea9de15df734413226d7f0d,5f0c8a478985aa622a843b7f,True,0.47000000000000003,,1706.7250000545755,"<h2>Will the cat appear after this screen?</h2><div class=""J_key""><strong>Yes</strong> <br> (press J)</div><div class=""F_key""><strong>No</strong> <br> (press F)</div><div class=""central_stim""><img src=""stimuli/spade.png"" width=""30%"" style=""padding:2vmin""></div><p class=""progress""> [46/64]</br>number of points: 29</p>",74.0,['stimuli/spade.png'],1.0,j,test,main,1.0,,B+
,html-keyboard-response,190,429528,0.0-7.0-2.13,5f0c7ec1aabfdb45097524af,5ea9de15df734413226d7f0d,5f0c8a478985aa622a843b7f,True,0.47000000000000003,,,"<div class=""central_stim""><img src=""stimuli/cat.png"" class=""cat""></div><p class=""progress""> [46/64]</br>number of points: 30</p>",,['stimuli/spade.png'],1.0,j,test,feedback,,,B+
,html-keyboard-response,191,430032,0.0-7.0-0.14,5f0c7ec1aabfdb45097524af,5ea9de15df734413226d7f0d,5f0c8a478985aa622a843b7f,True,0.47000000000000003,,,"<h2>Will the cat appear after this screen?</h2><div class=""J_key""><strong>Yes</strong> <br> (press J)</div><div class=""F_key""><strong>No</strong> <br> (press F)</div><p class=""progress""> [47/64]</br>number of points: 30</p>",,"['stimuli/star.png', 'stimuli/plus.png']",0.0,f,test,prepare,,,CD-
,html-keyboard-response,192,431438,0.0-7.0-1.14,5f0c7ec1aabfdb45097524af,5ea9de15df734413226d7f0d,5f0c8a478985aa622a843b7f,True,0.47000000000000003,,1403.2250000163913,"<h2>Will the cat appear after this screen?</h2><div class=""J_key""><strong>Yes</strong> <br> (press J)</div><div class=""F_key""><strong>No</strong> <br> (press F)</div><div class=""central_stim""><img src=""stimuli/star.png"" width=""30%"" style=""padding:2vmin"">	<img src=""stimuli/plus.png"" width=""30%"" style=""padding:2vmin""></div><p class=""progress""> [47/64]</br>number of points: 30</p>",70.0,"['stimuli/star.png', 'stimuli/plus.png']",0.0,f,test,main,1.0,,CD-
,html-keyboard-response,193,433446,0.0-7.0-2.14,5f0c7ec1aabfdb45097524af,5ea9de15df734413226d7f0d,5f0c8a478985aa622a843b7f,True,0.47000000000000003,,,"<div class=""central_stim""></div><p class=""progress""> [47/64]</br>number of points: 31</p>",,"['stimuli/star.png', 'stimuli/plus.png']",0.0,f,test,feedback,,,CD-
,html-keyboard-response,194,433949,0.0-7.0-0.15,5f0c7ec1aabfdb45097524af,5ea9de15df734413226d7f0d,5f0c8a478985aa622a843b7f,True,0.47000000000000003,,,"<h2>Will the cat appear after this screen?</h2><div class=""J_key""><strong>Yes</strong> <br> (press J)</div><div class=""F_key""><strong>No</strong> <br> (press F)</div><p class=""progress""> [48/64]</br>number of points: 31</p>",,['stimuli/clover.png'],0.0,f,test,prepare,,,A-
,html-keyboard-response,195,435164,0.0-7.0-1.15,5f0c7ec1aabfdb45097524af,5ea9de15df734413226d7f0d,5f0c8a478985aa622a843b7f,True,0.47000000000000003,,1212.7800000598654,"<h2>Will the cat appear after this screen?</h2><div class=""J_key""><strong>Yes</strong> <br> (press J)</div><div class=""F_key""><strong>No</strong> <br> (press F)</div><div class=""central_stim""><img src=""stimuli/clover.png"" width=""30%"" style=""padding:2vmin""></div><p class=""progress""> [48/64]</br>number of points: 31</p>",70.0,['stimuli/clover.png'],0.0,f,test,main,1.0,,A-
,html-keyboard-response,196,437170,0.0-7.0-2.15,5f0c7ec1aabfdb45097524af,5ea9de15df734413226d7f0d,5f0c8a478985aa622a843b7f,True,0.47000000000000003,,,"<div class=""central_stim""></div><p class=""progress""> [48/64]</br>number of points: 32</p>",,['stimuli/clover.png'],0.0,f,test,feedback,,,A-
,html-keyboard-response,197,437677,0.0-7.0-0.16,5f0c7ec1aabfdb45097524af,5ea9de15df734413226d7f0d,5f0c8a478985aa622a843b7f,True,0.47000000000000003,,,"<h2>Will the cat appear after this screen?</h2><div class=""J_key""><strong>Yes</strong> <br> (press J)</div><div class=""F_key""><strong>No</strong> <br> (press F)</div><p class=""progress""> [49/64]</br>number of points: 32</p>",,['stimuli/clover.png'],0.0,f,test,prepare,,,A-
,html-keyboard-response,198,438850,0.0-7.0-1.16,5f0c7ec1aabfdb45097524af,5ea9de15df734413226d7f0d,5f0c8a478985aa622a843b7f,True,0.47000000000000003,,1170.7400000886992,"<h2>Will the cat appear after this screen?</h2><div class=""J_key""><strong>Yes</strong> <br> (press J)</div><div class=""F_key""><strong>No</strong> <br> (press F)</div><div class=""central_stim""><img src=""stimuli/clover.png"" width=""30%"" style=""padding:2vmin""></div><p class=""progress""> [49/64]</br>number of points: 32</p>",70.0,['stimuli/clover.png'],0.0,f,test,main,1.0,,A-
,html-keyboard-response,199,440853,0.0-7.0-2.16,5f0c7ec1aabfdb45097524af,5ea9de15df734413226d7f0d,5f0c8a478985aa622a843b7f,True,0.47000000000000003,,,"<div class=""central_stim""></div><p class=""progress""> [49/64]</br>number of points: 33</p>",,['stimuli/clover.png'],0.0,f,test,feedback,,,A-
,html-keyboard-response,200,441362,0.0-7.0-0.17,5f0c7ec1aabfdb45097524af,5ea9de15df734413226d7f0d,5f0c8a478985aa622a843b7f,True,0.47000000000000003,,,"<h2>Will the cat appear after this screen?</h2><div class=""J_key""><strong>Yes</strong> <br> (press J)</div><div class=""F_key""><strong>No</strong> <br> (press F)</div><p class=""progress""> [50/64]</br>number of points: 33</p>",,['stimuli/plus.png'],1.0,j,test,prepare,,,C+
,html-keyboard-response,201,443378,0.0-7.0-1.17,5f0c7ec1aabfdb45097524af,5ea9de15df734413226d7f0d,5f0c8a478985aa622a843b7f,True,0.47000000000000003,,2014.5400000037625,"<h2>Will the cat appear after this screen?</h2><div class=""J_key""><strong>Yes</strong> <br> (press J)</div><div class=""F_key""><strong>No</strong> <br> (press F)</div><div class=""central_stim""><img src=""stimuli/plus.png"" width=""30%"" style=""padding:2vmin""></div><p class=""progress""> [50/64]</br>number of points: 33</p>",70.0,['stimuli/plus.png'],1.0,j,test,main,0.0,,C+
,html-keyboard-response,202,445380,0.0-7.0-2.17,5f0c7ec1aabfdb45097524af,5ea9de15df734413226d7f0d,5f0c8a478985aa622a843b7f,True,0.47000000000000003,,,"<div class=""central_stim""><img src=""stimuli/cat.png"" class=""cat""></div><p class=""progress""> [50/64]</br>number of points: 33</p>",,['stimuli/plus.png'],1.0,j,test,feedback,,,C+
,html-keyboard-response,203,445885,0.0-7.0-0.18,5f0c7ec1aabfdb45097524af,5ea9de15df734413226d7f0d,5f0c8a478985aa622a843b7f,True,0.47000000000000003,,,"<h2>Will the cat appear after this screen?</h2><div class=""J_key""><strong>Yes</strong> <br> (press J)</div><div class=""F_key""><strong>No</strong> <br> (press F)</div><p class=""progress""> [51/64]</br>number of points: 33</p>",,['stimuli/hexagon.png'],0.0,f,test,prepare,,,E-
,html-keyboard-response,204,447116,0.0-7.0-1.18,5f0c7ec1aabfdb45097524af,5ea9de15df734413226d7f0d,5f0c8a478985aa622a843b7f,True,0.47000000000000003,,1227.309999987483,"<h2>Will the cat appear after this screen?</h2><div class=""J_key""><strong>Yes</strong> <br> (press J)</div><div class=""F_key""><strong>No</strong> <br> (press F)</div><div class=""central_stim""><img src=""stimuli/hexagon.png"" width=""30%"" style=""padding:2vmin""></div><p class=""progress""> [51/64]</br>number of points: 33</p>",70.0,['stimuli/hexagon.png'],0.0,f,test,main,1.0,,E-
,html-keyboard-response,205,449121,0.0-7.0-2.18,5f0c7ec1aabfdb45097524af,5ea9de15df734413226d7f0d,5f0c8a478985aa622a843b7f,True,0.47000000000000003,,,"<div class=""central_stim""></div><p class=""progress""> [51/64]</br>number of points: 34</p>",,['stimuli/hexagon.png'],0.0,f,test,feedback,,,E-
,html-keyboard-response,206,449627,0.0-7.0-0.19,5f0c7ec1aabfdb45097524af,5ea9de15df734413226d7f0d,5f0c8a478985aa622a843b7f,True,0.47000000000000003,,,"<h2>Will the cat appear after this screen?</h2><div class=""J_key""><strong>Yes</strong> <br> (press J)</div><div class=""F_key""><strong>No</strong> <br> (press F)</div><p class=""progress""> [52/64]</br>number of points: 34</p>",,['stimuli/spade.png'],1.0,j,test,prepare,,,B+
,html-keyboard-response,207,451226,0.0-7.0-1.19,5f0c7ec1aabfdb45097524af,5ea9de15df734413226d7f0d,5f0c8a478985aa622a843b7f,True,0.47000000000000003,,1597.5699999835342,"<h2>Will the cat appear after this screen?</h2><div class=""J_key""><strong>Yes</strong> <br> (press J)</div><div class=""F_key""><strong>No</strong> <br> (press F)</div><div class=""central_stim""><img src=""stimuli/spade.png"" width=""30%"" style=""padding:2vmin""></div><p class=""progress""> [52/64]</br>number of points: 34</p>",74.0,['stimuli/spade.png'],1.0,j,test,main,1.0,,B+
,html-keyboard-response,208,453229,0.0-7.0-2.19,5f0c7ec1aabfdb45097524af,5ea9de15df734413226d7f0d,5f0c8a478985aa622a843b7f,True,0.47000000000000003,,,"<div class=""central_stim""><img src=""stimuli/cat.png"" class=""cat""></div><p class=""progress""> [52/64]</br>number of points: 35</p>",,['stimuli/spade.png'],1.0,j,test,feedback,,,B+
,html-keyboard-response,209,453737,0.0-7.0-0.20,5f0c7ec1aabfdb45097524af,5ea9de15df734413226d7f0d,5f0c8a478985aa622a843b7f,True,0.47000000000000003,,,"<h2>Will the cat appear after this screen?</h2><div class=""J_key""><strong>Yes</strong> <br> (press J)</div><div class=""F_key""><strong>No</strong> <br> (press F)</div><p class=""progress""> [53/64]</br>number of points: 35</p>",,"['stimuli/hexagon.png', 'stimuli/up_facing.png']",1.0,j,test,prepare,,,EF+
,html-keyboard-response,210,455012,0.0-7.0-1.20,5f0c7ec1aabfdb45097524af,5ea9de15df734413226d7f0d,5f0c8a478985aa622a843b7f,True,0.47000000000000003,,1272.5299999583513,"<h2>Will the cat appear after this screen?</h2><div class=""J_key""><strong>Yes</strong> <br> (press J)</div><div class=""F_key""><strong>No</strong> <br> (press F)</div><div class=""central_stim""><img src=""stimuli/hexagon.png"" width=""30%"" style=""padding:2vmin"">	<img src=""stimuli/up_facing.png"" width=""30%"" style=""padding:2vmin""></div><p class=""progress""> [53/64]</br>number of points: 35</p>",74.0,"['stimuli/hexagon.png', 'stimuli/up_facing.png']",1.0,j,test,main,1.0,,EF+
,html-keyboard-response,211,457015,0.0-7.0-2.20,5f0c7ec1aabfdb45097524af,5ea9de15df734413226d7f0d,5f0c8a478985aa622a843b7f,True,0.47000000000000003,,,"<div class=""central_stim""><img src=""stimuli/cat.png"" class=""cat""></div><p class=""progress""> [53/64]</br>number of points: 36</p>",,"['stimuli/hexagon.png', 'stimuli/up_facing.png']",1.0,j,test,feedback,,,EF+
,html-keyboard-response,212,457523,0.0-7.0-0.21,5f0c7ec1aabfdb45097524af,5ea9de15df734413226d7f0d,5f0c8a478985aa622a843b7f,True,0.47000000000000003,,,"<h2>Will the cat appear after this screen?</h2><div class=""J_key""><strong>Yes</strong> <br> (press J)</div><div class=""F_key""><strong>No</strong> <br> (press F)</div><p class=""progress""> [54/64]</br>number of points: 36</p>",,['stimuli/O.png'],0.0,f,test,prepare,,,O-
,html-keyboard-response,213,458796,0.0-7.0-1.21,5f0c7ec1aabfdb45097524af,5ea9de15df734413226d7f0d,5f0c8a478985aa622a843b7f,True,0.47000000000000003,,1271.830000099726,"<h2>Will the cat appear after this screen?</h2><div class=""J_key""><strong>Yes</strong> <br> (press J)</div><div class=""F_key""><strong>No</strong> <br> (press F)</div><div class=""central_stim""><img src=""stimuli/O.png"" width=""30%"" style=""padding:2vmin""></div><p class=""progress""> [54/64]</br>number of points: 36</p>",70.0,['stimuli/O.png'],0.0,f,test,main,1.0,,O-
,html-keyboard-response,214,460800,0.0-7.0-2.21,5f0c7ec1aabfdb45097524af,5ea9de15df734413226d7f0d,5f0c8a478985aa622a843b7f,True,0.47000000000000003,,,"<div class=""central_stim""></div><p class=""progress""> [54/64]</br>number of points: 37</p>",,['stimuli/O.png'],0.0,f,test,feedback,,,O-
,html-keyboard-response,215,461304,0.0-7.0-0.22,5f0c7ec1aabfdb45097524af,5ea9de15df734413226d7f0d,5f0c8a478985aa622a843b7f,True,0.47000000000000003,,,"<h2>Will the cat appear after this screen?</h2><div class=""J_key""><strong>Yes</strong> <br> (press J)</div><div class=""F_key""><strong>No</strong> <br> (press F)</div><p class=""progress""> [55/64]</br>number of points: 37</p>",,"['stimuli/star.png', 'stimuli/plus.png']",0.0,f,test,prepare,,,CD-
,html-keyboard-response,216,462499,0.0-7.0-1.22,5f0c7ec1aabfdb45097524af,5ea9de15df734413226d7f0d,5f0c8a478985aa622a843b7f,True,0.47000000000000003,,1192.7350000478327,"<h2>Will the cat appear after this screen?</h2><div class=""J_key""><strong>Yes</strong> <br> (press J)</div><div class=""F_key""><strong>No</strong> <br> (press F)</div><div class=""central_stim""><img src=""stimuli/star.png"" width=""30%"" style=""padding:2vmin"">	<img src=""stimuli/plus.png"" width=""30%"" style=""padding:2vmin""></div><p class=""progress""> [55/64]</br>number of points: 37</p>",70.0,"['stimuli/star.png', 'stimuli/plus.png']",0.0,f,test,main,1.0,,CD-
,html-keyboard-response,217,464505,0.0-7.0-2.22,5f0c7ec1aabfdb45097524af,5ea9de15df734413226d7f0d,5f0c8a478985aa622a843b7f,True,0.47000000000000003,,,"<div class=""central_stim""></div><p class=""progress""> [55/64]</br>number of points: 38</p>",,"['stimuli/star.png', 'stimuli/plus.png']",0.0,f,test,feedback,,,CD-
,html-keyboard-response,218,465013,0.0-7.0-0.23,5f0c7ec1aabfdb45097524af,5ea9de15df734413226d7f0d,5f0c8a478985aa622a843b7f,True,0.47000000000000003,,,"<h2>Will the cat appear after this screen?</h2><div class=""J_key""><strong>Yes</strong> <br> (press J)</div><div class=""F_key""><strong>No</strong> <br> (press F)</div><p class=""progress""> [56/64]</br>number of points: 38</p>",,['stimuli/Q.png'],1.0,j,test,prepare,,,Q+
,html-keyboard-response,219,466220,0.0-7.0-1.23,5f0c7ec1aabfdb45097524af,5ea9de15df734413226d7f0d,5f0c8a478985aa622a843b7f,True,0.47000000000000003,,1204.4799999566749,"<h2>Will the cat appear after this screen?</h2><div class=""J_key""><strong>Yes</strong> <br> (press J)</div><div class=""F_key""><strong>No</strong> <br> (press F)</div><div class=""central_stim""><img src=""stimuli/Q.png"" width=""30%"" style=""padding:2vmin""></div><p class=""progress""> [56/64]</br>number of points: 38</p>",74.0,['stimuli/Q.png'],1.0,j,test,main,1.0,,Q+
,html-keyboard-response,220,468225,0.0-7.0-2.23,5f0c7ec1aabfdb45097524af,5ea9de15df734413226d7f0d,5f0c8a478985aa622a843b7f,True,0.47000000000000003,,,"<div class=""central_stim""><img src=""stimuli/cat.png"" class=""cat""></div><p class=""progress""> [56/64]</br>number of points: 39</p>",,['stimuli/Q.png'],1.0,j,test,feedback,,,Q+
,html-keyboard-response,221,468732,0.0-7.0-0.24,5f0c7ec1aabfdb45097524af,5ea9de15df734413226d7f0d,5f0c8a478985aa622a843b7f,True,0.47000000000000003,,,"<h2>Will the cat appear after this screen?</h2><div class=""J_key""><strong>Yes</strong> <br> (press J)</div><div class=""F_key""><strong>No</strong> <br> (press F)</div><p class=""progress""> [57/64]</br>number of points: 39</p>",,['stimuli/clover.png'],0.0,f,test,prepare,,,A-
,html-keyboard-response,222,470031,0.0-7.0-1.24,5f0c7ec1aabfdb45097524af,5ea9de15df734413226d7f0d,5f0c8a478985aa622a843b7f,True,0.47000000000000003,,1296.195000060834,"<h2>Will the cat appear after this screen?</h2><div class=""J_key""><strong>Yes</strong> <br> (press J)</div><div class=""F_key""><strong>No</strong> <br> (press F)</div><div class=""central_stim""><img src=""stimuli/clover.png"" width=""30%"" style=""padding:2vmin""></div><p class=""progress""> [57/64]</br>number of points: 39</p>",70.0,['stimuli/clover.png'],0.0,f,test,main,1.0,,A-
,html-keyboard-response,223,472035,0.0-7.0-2.24,5f0c7ec1aabfdb45097524af,5ea9de15df734413226d7f0d,5f0c8a478985aa622a843b7f,True,0.47000000000000003,,,"<div class=""central_stim""></div><p class=""progress""> [57/64]</br>number of points: 40</p>",,['stimuli/clover.png'],0.0,f,test,feedback,,,A-
,html-keyboard-response,224,472538,0.0-7.0-0.25,5f0c7ec1aabfdb45097524af,5ea9de15df734413226d7f0d,5f0c8a478985aa622a843b7f,True,0.47000000000000003,,,"<h2>Will the cat appear after this screen?</h2><div class=""J_key""><strong>Yes</strong> <br> (press J)</div><div class=""F_key""><strong>No</strong> <br> (press F)</div><p class=""progress""> [58/64]</br>number of points: 40</p>",,['stimuli/O.png'],0.0,f,test,prepare,,,O-
,html-keyboard-response,225,473647,0.0-7.0-1.25,5f0c7ec1aabfdb45097524af,5ea9de15df734413226d7f0d,5f0c8a478985aa622a843b7f,True,0.47000000000000003,,1106.8750000558794,"<h2>Will the cat appear after this screen?</h2><div class=""J_key""><strong>Yes</strong> <br> (press J)</div><div class=""F_key""><strong>No</strong> <br> (press F)</div><div class=""central_stim""><img src=""stimuli/O.png"" width=""30%"" style=""padding:2vmin""></div><p class=""progress""> [58/64]</br>number of points: 40</p>",70.0,['stimuli/O.png'],0.0,f,test,main,1.0,,O-
,html-keyboard-response,226,475653,0.0-7.0-2.25,5f0c7ec1aabfdb45097524af,5ea9de15df734413226d7f0d,5f0c8a478985aa622a843b7f,True,0.47000000000000003,,,"<div class=""central_stim""></div><p class=""progress""> [58/64]</br>number of points: 41</p>",,['stimuli/O.png'],0.0,f,test,feedback,,,O-
,html-keyboard-response,227,476162,0.0-7.0-0.26,5f0c7ec1aabfdb45097524af,5ea9de15df734413226d7f0d,5f0c8a478985aa622a843b7f,True,0.47000000000000003,,,"<h2>Will the cat appear after this screen?</h2><div class=""J_key""><strong>Yes</strong> <br> (press J)</div><div class=""F_key""><strong>No</strong> <br> (press F)</div><p class=""progress""> [59/64]</br>number of points: 41</p>",,"['stimuli/star.png', 'stimuli/plus.png']",0.0,f,test,prepare,,,CD-
,html-keyboard-response,228,477279,0.0-7.0-1.26,5f0c7ec1aabfdb45097524af,5ea9de15df734413226d7f0d,5f0c8a478985aa622a843b7f,True,0.47000000000000003,,1115.044999984093,"<h2>Will the cat appear after this screen?</h2><div class=""J_key""><strong>Yes</strong> <br> (press J)</div><div class=""F_key""><strong>No</strong> <br> (press F)</div><div class=""central_stim""><img src=""stimuli/star.png"" width=""30%"" style=""padding:2vmin"">	<img src=""stimuli/plus.png"" width=""30%"" style=""padding:2vmin""></div><p class=""progress""> [59/64]</br>number of points: 41</p>",70.0,"['stimuli/star.png', 'stimuli/plus.png']",0.0,f,test,main,1.0,,CD-
,html-keyboard-response,229,479283,0.0-7.0-2.26,5f0c7ec1aabfdb45097524af,5ea9de15df734413226d7f0d,5f0c8a478985aa622a843b7f,True,0.47000000000000003,,,"<div class=""central_stim""></div><p class=""progress""> [59/64]</br>number of points: 42</p>",,"['stimuli/star.png', 'stimuli/plus.png']",0.0,f,test,feedback,,,CD-
,html-keyboard-response,230,479791,0.0-7.0-0.27,5f0c7ec1aabfdb45097524af,5ea9de15df734413226d7f0d,5f0c8a478985aa622a843b7f,True,0.47000000000000003,,,"<h2>Will the cat appear after this screen?</h2><div class=""J_key""><strong>Yes</strong> <br> (press J)</div><div class=""F_key""><strong>No</strong> <br> (press F)</div><p class=""progress""> [60/64]</br>number of points: 42</p>",,['stimuli/hexagon.png'],0.0,f,test,prepare,,,E-
,html-keyboard-response,231,480875,0.0-7.0-1.27,5f0c7ec1aabfdb45097524af,5ea9de15df734413226d7f0d,5f0c8a478985aa622a843b7f,True,0.47000000000000003,,1080.489999963902,"<h2>Will the cat appear after this screen?</h2><div class=""J_key""><strong>Yes</strong> <br> (press J)</div><div class=""F_key""><strong>No</strong> <br> (press F)</div><div class=""central_stim""><img src=""stimuli/hexagon.png"" width=""30%"" style=""padding:2vmin""></div><p class=""progress""> [60/64]</br>number of points: 42</p>",70.0,['stimuli/hexagon.png'],0.0,f,test,main,1.0,,E-
,html-keyboard-response,232,482878,0.0-7.0-2.27,5f0c7ec1aabfdb45097524af,5ea9de15df734413226d7f0d,5f0c8a478985aa622a843b7f,True,0.47000000000000003,,,"<div class=""central_stim""></div><p class=""progress""> [60/64]</br>number of points: 43</p>",,['stimuli/hexagon.png'],0.0,f,test,feedback,,,E-
,html-keyboard-response,233,483381,0.0-7.0-0.28,5f0c7ec1aabfdb45097524af,5ea9de15df734413226d7f0d,5f0c8a478985aa622a843b7f,True,0.47000000000000003,,,"<h2>Will the cat appear after this screen?</h2><div class=""J_key""><strong>Yes</strong> <br> (press J)</div><div class=""F_key""><strong>No</strong> <br> (press F)</div><p class=""progress""> [61/64]</br>number of points: 43</p>",,['stimuli/Q.png'],1.0,j,test,prepare,,,Q+
