success,trial_type,trial_index,time_elapsed,internal_node_id,STUDY_ID,PROLIFIC_PID,SESSION_ID,FP,bonus,draw_light,correct_response,test_part,RT,response,correct,rt,responses
1.0,fullscreen,0,3666,0.0-0.0,5eff7cd152e3fd04e8afe0dc,5eedb8dfd2f5e71ef21600b6,5f002f595819b111bafe9454,False,0.55,,,,,,,,
,p5Text,1,13376,0.0-1.0,5eff7cd152e3fd04e8afe0dc,5eedb8dfd2f5e71ef21600b6,5f002f595819b111bafe9454,False,0.55,,,,,,,,
,p5Text,2,23087,0.0-2.0,5eff7cd152e3fd04e8afe0dc,5eedb8dfd2f5e71ef21600b6,5f002f595819b111bafe9454,False,0.55,,,,,,,,
,p5Text,3,40946,0.0-3.0,5eff7cd152e3fd04e8afe0dc,5eedb8dfd2f5e71ef21600b6,5f002f595819b111bafe9454,False,0.55,,,,,,,,
,p5Text,4,53742,0.0-4.0,5eff7cd152e3fd04e8afe0dc,5eedb8dfd2f5e71ef21600b6,5f002f595819b111bafe9454,False,0.55,,,,,,,,
,p5card,5,58935,0.0-5.0-0.0,5eff7cd152e3fd04e8afe0dc,5eedb8dfd2f5e71ef21600b6,5f002f595819b111bafe9454,False,0.55,0.0,f,test,,,,,
,p5feedback,6,62713,0.0-5.0-1.0,5eff7cd152e3fd04e8afe0dc,5eedb8dfd2f5e71ef21600b6,5f002f595819b111bafe9454,False,0.55,,,,,,,,
,p5card,7,66349,0.0-5.0-0.1,5eff7cd152e3fd04e8afe0dc,5eedb8dfd2f5e71ef21600b6,5f002f595819b111bafe9454,False,0.55,1.0,j,test,1393.6249999678694,j,1.0,,
,p5feedback,8,67720,0.0-5.0-1.1,5eff7cd152e3fd04e8afe0dc,5eedb8dfd2f5e71ef21600b6,5f002f595819b111bafe9454,False,0.55,,,,,,,,
,p5card,9,74797,0.0-5.0-0.2,5eff7cd152e3fd04e8afe0dc,5eedb8dfd2f5e71ef21600b6,5f002f595819b111bafe9454,False,0.55,1.0,j,test,4906.43499995349,f,0.0,,
,p5feedback,10,76102,0.0-5.0-1.2,5eff7cd152e3fd04e8afe0dc,5eedb8dfd2f5e71ef21600b6,5f002f595819b111bafe9454,False,0.55,,,,,,,,
,p5card,11,81377,0.0-5.0-0.3,5eff7cd152e3fd04e8afe0dc,5eedb8dfd2f5e71ef21600b6,5f002f595819b111bafe9454,False,0.55,0.0,f,test,,,,,
,p5feedback,12,82664,0.0-5.0-1.3,5eff7cd152e3fd04e8afe0dc,5eedb8dfd2f5e71ef21600b6,5f002f595819b111bafe9454,False,0.55,,,,,,,,
,p5card,13,85459,0.0-5.0-0.4,5eff7cd152e3fd04e8afe0dc,5eedb8dfd2f5e71ef21600b6,5f002f595819b111bafe9454,False,0.55,1.0,j,test,650.4500000155531,f,0.0,,
,p5feedback,14,86667,0.0-5.0-1.4,5eff7cd152e3fd04e8afe0dc,5eedb8dfd2f5e71ef21600b6,5f002f595819b111bafe9454,False,0.55,,,,,,,,
,p5card,15,90257,0.0-5.0-0.5,5eff7cd152e3fd04e8afe0dc,5eedb8dfd2f5e71ef21600b6,5f002f595819b111bafe9454,False,0.55,0.0,f,test,1425.7649999926798,j,0.0,,
,p5feedback,16,91651,0.0-5.0-1.5,5eff7cd152e3fd04e8afe0dc,5eedb8dfd2f5e71ef21600b6,5f002f595819b111bafe9454,False,0.55,,,,,,,,
,p5card,17,97571,0.0-5.0-0.6,5eff7cd152e3fd04e8afe0dc,5eedb8dfd2f5e71ef21600b6,5f002f595819b111bafe9454,False,0.55,0.0,f,test,3756.4999999594875,j,0.0,,
,p5feedback,18,98953,0.0-5.0-1.6,5eff7cd152e3fd04e8afe0dc,5eedb8dfd2f5e71ef21600b6,5f002f595819b111bafe9454,False,0.55,,,,,,,,
,p5card,19,104704,0.0-5.0-0.7,5eff7cd152e3fd04e8afe0dc,5eedb8dfd2f5e71ef21600b6,5f002f595819b111bafe9454,False,0.55,1.0,j,test,3602.0799999823794,j,1.0,,
,p5feedback,20,105822,0.0-5.0-1.7,5eff7cd152e3fd04e8afe0dc,5eedb8dfd2f5e71ef21600b6,5f002f595819b111bafe9454,False,0.55,,,,,,,,
,p5card,21,110283,0.0-5.0-0.8,5eff7cd152e3fd04e8afe0dc,5eedb8dfd2f5e71ef21600b6,5f002f595819b111bafe9454,False,0.55,0.0,f,test,2276.125000033062,f,1.0,,
,p5feedback,22,111237,0.0-5.0-1.8,5eff7cd152e3fd04e8afe0dc,5eedb8dfd2f5e71ef21600b6,5f002f595819b111bafe9454,False,0.55,,,,,,,,
,p5card,23,115265,0.0-5.0-0.9,5eff7cd152e3fd04e8afe0dc,5eedb8dfd2f5e71ef21600b6,5f002f595819b111bafe9454,False,0.55,1.0,j,test,1856.2350000138395,j,1.0,,
,p5feedback,24,116435,0.0-5.0-1.9,5eff7cd152e3fd04e8afe0dc,5eedb8dfd2f5e71ef21600b6,5f002f595819b111bafe9454,False,0.55,,,,,,,,
,p5card,25,120263,0.0-5.0-0.10,5eff7cd152e3fd04e8afe0dc,5eedb8dfd2f5e71ef21600b6,5f002f595819b111bafe9454,False,0.55,0.0,f,test,1696.0499999695458,j,0.0,,
,p5feedback,26,121573,0.0-5.0-1.10,5eff7cd152e3fd04e8afe0dc,5eedb8dfd2f5e71ef21600b6,5f002f595819b111bafe9454,False,0.55,,,,,,,,
,p5card,27,126661,0.0-5.0-0.11,5eff7cd152e3fd04e8afe0dc,5eedb8dfd2f5e71ef21600b6,5f002f595819b111bafe9454,False,0.55,1.0,j,test,2935.0200000335462,j,1.0,,
,p5feedback,28,127602,0.0-5.0-1.11,5eff7cd152e3fd04e8afe0dc,5eedb8dfd2f5e71ef21600b6,5f002f595819b111bafe9454,False,0.55,,,,,,,,
,p5card,29,132042,0.0-5.0-0.12,5eff7cd152e3fd04e8afe0dc,5eedb8dfd2f5e71ef21600b6,5f002f595819b111bafe9454,False,0.55,0.0,f,test,2288.7200000113808,j,0.0,,
,p5feedback,30,132882,0.0-5.0-1.12,5eff7cd152e3fd04e8afe0dc,5eedb8dfd2f5e71ef21600b6,5f002f595819b111bafe9454,False,0.55,,,,,,,,
,p5card,31,136975,0.0-5.0-0.13,5eff7cd152e3fd04e8afe0dc,5eedb8dfd2f5e71ef21600b6,5f002f595819b111bafe9454,False,0.55,1.0,j,test,1956.6250000498258,j,1.0,,
,p5feedback,32,137898,0.0-5.0-1.13,5eff7cd152e3fd04e8afe0dc,5eedb8dfd2f5e71ef21600b6,5f002f595819b111bafe9454,False,0.55,,,,,,,,
,p5card,33,142873,0.0-5.0-0.14,5eff7cd152e3fd04e8afe0dc,5eedb8dfd2f5e71ef21600b6,5f002f595819b111bafe9454,False,0.55,1.0,j,test,2842.029999999795,f,0.0,,
,p5feedback,34,143711,0.0-5.0-1.14,5eff7cd152e3fd04e8afe0dc,5eedb8dfd2f5e71ef21600b6,5f002f595819b111bafe9454,False,0.55,,,,,,,,
,p5card,35,148237,0.0-5.0-0.15,5eff7cd152e3fd04e8afe0dc,5eedb8dfd2f5e71ef21600b6,5f002f595819b111bafe9454,False,0.55,0.0,f,test,2378.52499994915,f,1.0,,
,p5feedback,36,151162,0.0-5.0-1.15,5eff7cd152e3fd04e8afe0dc,5eedb8dfd2f5e71ef21600b6,5f002f595819b111bafe9454,False,0.55,,,,,,,,
,p5card,37,155468,0.0-5.0-0.16,5eff7cd152e3fd04e8afe0dc,5eedb8dfd2f5e71ef21600b6,5f002f595819b111bafe9454,False,0.55,1.0,j,test,2147.869999986142,j,1.0,,
,p5feedback,38,157756,0.0-5.0-1.16,5eff7cd152e3fd04e8afe0dc,5eedb8dfd2f5e71ef21600b6,5f002f595819b111bafe9454,False,0.55,,,,,,,,
,p5card,39,161717,0.0-5.0-0.17,5eff7cd152e3fd04e8afe0dc,5eedb8dfd2f5e71ef21600b6,5f002f595819b111bafe9454,False,0.55,0.0,f,test,1803.319999948144,f,1.0,,
,p5feedback,40,164028,0.0-5.0-1.17,5eff7cd152e3fd04e8afe0dc,5eedb8dfd2f5e71ef21600b6,5f002f595819b111bafe9454,False,0.55,,,,,,,,
,p5card,41,167381,0.0-5.0-0.18,5eff7cd152e3fd04e8afe0dc,5eedb8dfd2f5e71ef21600b6,5f002f595819b111bafe9454,False,0.55,1.0,j,test,1123.3099999953993,j,1.0,,
,p5feedback,42,169650,0.0-5.0-1.18,5eff7cd152e3fd04e8afe0dc,5eedb8dfd2f5e71ef21600b6,5f002f595819b111bafe9454,False,0.55,,,,,,,,
,p5card,43,173430,0.0-5.0-0.19,5eff7cd152e3fd04e8afe0dc,5eedb8dfd2f5e71ef21600b6,5f002f595819b111bafe9454,False,0.55,0.0,f,test,1651.8700000015087,f,1.0,,
,p5feedback,44,175080,0.0-5.0-1.19,5eff7cd152e3fd04e8afe0dc,5eedb8dfd2f5e71ef21600b6,5f002f595819b111bafe9454,False,0.55,,,,,,,,
,p5card,45,178144,0.0-5.0-0.20,5eff7cd152e3fd04e8afe0dc,5eedb8dfd2f5e71ef21600b6,5f002f595819b111bafe9454,False,0.55,0.0,f,test,914.4899999955669,j,0.0,,
,p5feedback,46,178772,0.0-5.0-1.20,5eff7cd152e3fd04e8afe0dc,5eedb8dfd2f5e71ef21600b6,5f002f595819b111bafe9454,False,0.55,,,,,,,,
,p5card,47,182409,0.0-5.0-0.21,5eff7cd152e3fd04e8afe0dc,5eedb8dfd2f5e71ef21600b6,5f002f595819b111bafe9454,False,0.55,1.0,j,test,1500.179999973625,j,1.0,,
,p5feedback,48,184422,0.0-5.0-1.21,5eff7cd152e3fd04e8afe0dc,5eedb8dfd2f5e71ef21600b6,5f002f595819b111bafe9454,False,0.55,,,,,,,,
,p5card,49,189240,0.0-5.0-0.22,5eff7cd152e3fd04e8afe0dc,5eedb8dfd2f5e71ef21600b6,5f002f595819b111bafe9454,False,0.55,0.0,f,test,2669.510000036098,f,1.0,,
,p5feedback,50,191749,0.0-5.0-1.22,5eff7cd152e3fd04e8afe0dc,5eedb8dfd2f5e71ef21600b6,5f002f595819b111bafe9454,False,0.55,,,,,,,,
,p5card,51,195321,0.0-5.0-0.23,5eff7cd152e3fd04e8afe0dc,5eedb8dfd2f5e71ef21600b6,5f002f595819b111bafe9454,False,0.55,1.0,j,test,1415.3749999823049,j,1.0,,
,p5feedback,52,197252,0.0-5.0-1.23,5eff7cd152e3fd04e8afe0dc,5eedb8dfd2f5e71ef21600b6,5f002f595819b111bafe9454,False,0.55,,,,,,,,
,p5card,53,200803,0.0-5.0-0.24,5eff7cd152e3fd04e8afe0dc,5eedb8dfd2f5e71ef21600b6,5f002f595819b111bafe9454,False,0.55,1.0,j,test,1389.324999996461,f,0.0,,
,p5feedback,54,202440,0.0-5.0-1.24,5eff7cd152e3fd04e8afe0dc,5eedb8dfd2f5e71ef21600b6,5f002f595819b111bafe9454,False,0.55,,,,,,,,
,p5card,55,207367,0.0-5.0-0.25,5eff7cd152e3fd04e8afe0dc,5eedb8dfd2f5e71ef21600b6,5f002f595819b111bafe9454,False,0.55,0.0,f,test,2693.3849999913946,f,1.0,,
,p5feedback,56,209556,0.0-5.0-1.25,5eff7cd152e3fd04e8afe0dc,5eedb8dfd2f5e71ef21600b6,5f002f595819b111bafe9454,False,0.55,,,,,,,,
,p5card,57,213769,0.0-5.0-0.26,5eff7cd152e3fd04e8afe0dc,5eedb8dfd2f5e71ef21600b6,5f002f595819b111bafe9454,False,0.55,1.0,j,test,2061.005000025034,f,0.0,,
,p5feedback,58,214891,0.0-5.0-1.26,5eff7cd152e3fd04e8afe0dc,5eedb8dfd2f5e71ef21600b6,5f002f595819b111bafe9454,False,0.55,,,,,,,,
,p5card,59,219364,0.0-5.0-0.27,5eff7cd152e3fd04e8afe0dc,5eedb8dfd2f5e71ef21600b6,5f002f595819b111bafe9454,False,0.55,0.0,f,test,2314.5500000100583,f,1.0,,
,p5feedback,60,221586,0.0-5.0-1.27,5eff7cd152e3fd04e8afe0dc,5eedb8dfd2f5e71ef21600b6,5f002f595819b111bafe9454,False,0.55,,,,,,,,
,p5card,61,224745,0.0-5.0-0.28,5eff7cd152e3fd04e8afe0dc,5eedb8dfd2f5e71ef21600b6,5f002f595819b111bafe9454,False,0.55,0.0,f,test,989.5150000229478,j,0.0,,
,p5feedback,62,225904,0.0-5.0-1.28,5eff7cd152e3fd04e8afe0dc,5eedb8dfd2f5e71ef21600b6,5f002f595819b111bafe9454,False,0.55,,,,,,,,
,p5card,63,229127,0.0-5.0-0.29,5eff7cd152e3fd04e8afe0dc,5eedb8dfd2f5e71ef21600b6,5f002f595819b111bafe9454,False,0.55,1.0,j,test,822.8649999946356,j,1.0,,
,p5feedback,64,231049,0.0-5.0-1.29,5eff7cd152e3fd04e8afe0dc,5eedb8dfd2f5e71ef21600b6,5f002f595819b111bafe9454,False,0.55,,,,,,,,
,p5card,65,235474,0.0-5.0-0.30,5eff7cd152e3fd04e8afe0dc,5eedb8dfd2f5e71ef21600b6,5f002f595819b111bafe9454,False,0.55,1.0,j,test,2253.9099999703467,f,0.0,,
,p5feedback,66,235598,0.0-5.0-1.30,5eff7cd152e3fd04e8afe0dc,5eedb8dfd2f5e71ef21600b6,5f002f595819b111bafe9454,False,0.55,,,,,,,,
,p5card,67,239156,0.0-5.0-0.31,5eff7cd152e3fd04e8afe0dc,5eedb8dfd2f5e71ef21600b6,5f002f595819b111bafe9454,False,0.55,0.0,f,test,1354.6750000095926,f,1.0,,
,p5feedback,68,241395,0.0-5.0-1.31,5eff7cd152e3fd04e8afe0dc,5eedb8dfd2f5e71ef21600b6,5f002f595819b111bafe9454,False,0.55,,,,,,,,
,p5card,69,245137,0.0-5.0-0.32,5eff7cd152e3fd04e8afe0dc,5eedb8dfd2f5e71ef21600b6,5f002f595819b111bafe9454,False,0.55,0.0,f,test,1591.9449999928474,j,0.0,,
,p5feedback,70,245525,0.0-5.0-1.32,5eff7cd152e3fd04e8afe0dc,5eedb8dfd2f5e71ef21600b6,5f002f595819b111bafe9454,False,0.55,,,,,,,,
,p5card,71,249253,0.0-5.0-0.33,5eff7cd152e3fd04e8afe0dc,5eedb8dfd2f5e71ef21600b6,5f002f595819b111bafe9454,False,0.55,1.0,j,test,1576.7100000521168,j,1.0,,
,p5feedback,72,251391,0.0-5.0-1.33,5eff7cd152e3fd04e8afe0dc,5eedb8dfd2f5e71ef21600b6,5f002f595819b111bafe9454,False,0.55,,,,,,,,
,p5card,73,254968,0.0-5.0-0.34,5eff7cd152e3fd04e8afe0dc,5eedb8dfd2f5e71ef21600b6,5f002f595819b111bafe9454,False,0.55,1.0,j,test,1425.9000000311062,f,0.0,,
,p5feedback,74,256446,0.0-5.0-1.34,5eff7cd152e3fd04e8afe0dc,5eedb8dfd2f5e71ef21600b6,5f002f595819b111bafe9454,False,0.55,,,,,,,,
,p5card,75,260283,0.0-5.0-0.35,5eff7cd152e3fd04e8afe0dc,5eedb8dfd2f5e71ef21600b6,5f002f595819b111bafe9454,False,0.55,0.0,f,test,1688.9850000152364,f,1.0,,
,p5feedback,76,263030,0.0-5.0-1.35,5eff7cd152e3fd04e8afe0dc,5eedb8dfd2f5e71ef21600b6,5f002f595819b111bafe9454,False,0.55,,,,,,,,
,p5card,77,267431,0.0-5.0-0.36,5eff7cd152e3fd04e8afe0dc,5eedb8dfd2f5e71ef21600b6,5f002f595819b111bafe9454,False,0.55,0.0,f,test,2245.8250000490807,f,1.0,,
,p5feedback,78,269651,0.0-5.0-1.36,5eff7cd152e3fd04e8afe0dc,5eedb8dfd2f5e71ef21600b6,5f002f595819b111bafe9454,False,0.55,,,,,,,,
,p5card,79,272896,0.0-5.0-0.37,5eff7cd152e3fd04e8afe0dc,5eedb8dfd2f5e71ef21600b6,5f002f595819b111bafe9454,False,0.55,1.0,j,test,1118.1999999680556,j,1.0,,
,p5feedback,80,275399,0.0-5.0-1.37,5eff7cd152e3fd04e8afe0dc,5eedb8dfd2f5e71ef21600b6,5f002f595819b111bafe9454,False,0.55,,,,,,,,
,p5card,81,280010,0.0-5.0-0.38,5eff7cd152e3fd04e8afe0dc,5eedb8dfd2f5e71ef21600b6,5f002f595819b111bafe9454,False,0.55,1.0,j,test,2466.6650000144728,j,1.0,,
,p5feedback,82,282591,0.0-5.0-1.38,5eff7cd152e3fd04e8afe0dc,5eedb8dfd2f5e71ef21600b6,5f002f595819b111bafe9454,False,0.55,,,,,,,,
,p5card,83,286741,0.0-5.0-0.39,5eff7cd152e3fd04e8afe0dc,5eedb8dfd2f5e71ef21600b6,5f002f595819b111bafe9454,False,0.55,0.0,f,test,1999.9100000131875,f,1.0,,
,p5feedback,84,289114,0.0-5.0-1.39,5eff7cd152e3fd04e8afe0dc,5eedb8dfd2f5e71ef21600b6,5f002f595819b111bafe9454,False,0.55,,,,,,,,
,p5card,85,293688,0.0-5.0-0.40,5eff7cd152e3fd04e8afe0dc,5eedb8dfd2f5e71ef21600b6,5f002f595819b111bafe9454,False,0.55,1.0,j,test,2437.740000023041,j,1.0,,
,p5feedback,86,295812,0.0-5.0-1.40,5eff7cd152e3fd04e8afe0dc,5eedb8dfd2f5e71ef21600b6,5f002f595819b111bafe9454,False,0.55,,,,,,,,
,p5card,87,299237,0.0-5.0-0.41,5eff7cd152e3fd04e8afe0dc,5eedb8dfd2f5e71ef21600b6,5f002f595819b111bafe9454,False,0.55,0.0,f,test,1261.049999971874,f,1.0,,
,p5feedback,88,301456,0.0-5.0-1.41,5eff7cd152e3fd04e8afe0dc,5eedb8dfd2f5e71ef21600b6,5f002f595819b111bafe9454,False,0.55,,,,,,,,
,p5card,89,305484,0.0-5.0-0.42,5eff7cd152e3fd04e8afe0dc,5eedb8dfd2f5e71ef21600b6,5f002f595819b111bafe9454,False,0.55,1.0,j,test,1894.2650000099093,j,1.0,,
,p5feedback,90,307288,0.0-5.0-1.42,5eff7cd152e3fd04e8afe0dc,5eedb8dfd2f5e71ef21600b6,5f002f595819b111bafe9454,False,0.55,,,,,,,,
,p5card,91,310982,0.0-5.0-0.43,5eff7cd152e3fd04e8afe0dc,5eedb8dfd2f5e71ef21600b6,5f002f595819b111bafe9454,False,0.55,0.0,f,test,1515.2300000190735,f,1.0,,
,p5feedback,92,313109,0.0-5.0-1.43,5eff7cd152e3fd04e8afe0dc,5eedb8dfd2f5e71ef21600b6,5f002f595819b111bafe9454,False,0.55,,,,,,,,
,p5card,93,316631,0.0-5.0-0.44,5eff7cd152e3fd04e8afe0dc,5eedb8dfd2f5e71ef21600b6,5f002f595819b111bafe9454,False,0.55,0.0,f,test,1359.8849999834783,j,0.0,,
,p5feedback,94,317623,0.0-5.0-1.44,5eff7cd152e3fd04e8afe0dc,5eedb8dfd2f5e71ef21600b6,5f002f595819b111bafe9454,False,0.55,,,,,,,,
,p5card,95,321346,0.0-5.0-0.45,5eff7cd152e3fd04e8afe0dc,5eedb8dfd2f5e71ef21600b6,5f002f595819b111bafe9454,False,0.55,1.0,j,test,1591.3999999756925,j,1.0,,
,p5feedback,96,324149,0.0-5.0-1.45,5eff7cd152e3fd04e8afe0dc,5eedb8dfd2f5e71ef21600b6,5f002f595819b111bafe9454,False,0.55,,,,,,,,
,p5card,97,327393,0.0-5.0-0.46,5eff7cd152e3fd04e8afe0dc,5eedb8dfd2f5e71ef21600b6,5f002f595819b111bafe9454,False,0.55,0.0,f,test,1097.589999961201,f,1.0,,
,p5feedback,98,329096,0.0-5.0-1.46,5eff7cd152e3fd04e8afe0dc,5eedb8dfd2f5e71ef21600b6,5f002f595819b111bafe9454,False,0.55,,,,,,,,
,p5card,99,333542,0.0-5.0-0.47,5eff7cd152e3fd04e8afe0dc,5eedb8dfd2f5e71ef21600b6,5f002f595819b111bafe9454,False,0.55,1.0,j,test,2302.1650000009686,f,0.0,,
,p5feedback,100,336715,0.0-5.0-1.47,5eff7cd152e3fd04e8afe0dc,5eedb8dfd2f5e71ef21600b6,5f002f595819b111bafe9454,False,0.55,,,,,,,,
,p5card,101,340605,0.0-5.0-0.48,5eff7cd152e3fd04e8afe0dc,5eedb8dfd2f5e71ef21600b6,5f002f595819b111bafe9454,False,0.55,0.0,f,test,1725.769999960903,j,0.0,,
,p5feedback,102,342548,0.0-5.0-1.48,5eff7cd152e3fd04e8afe0dc,5eedb8dfd2f5e71ef21600b6,5f002f595819b111bafe9454,False,0.55,,,,,,,,
,p5card,103,346104,0.0-5.0-0.49,5eff7cd152e3fd04e8afe0dc,5eedb8dfd2f5e71ef21600b6,5f002f595819b111bafe9454,False,0.55,1.0,j,test,1401.9850000040606,j,1.0,,
,p5feedback,104,348526,0.0-5.0-1.49,5eff7cd152e3fd04e8afe0dc,5eedb8dfd2f5e71ef21600b6,5f002f595819b111bafe9454,False,0.55,,,,,,,,
,p5card,105,351852,0.0-5.0-0.50,5eff7cd152e3fd04e8afe0dc,5eedb8dfd2f5e71ef21600b6,5f002f595819b111bafe9454,False,0.55,1.0,j,test,1144.9249999714084,f,0.0,,
,p5feedback,106,352522,0.0-5.0-1.50,5eff7cd152e3fd04e8afe0dc,5eedb8dfd2f5e71ef21600b6,5f002f595819b111bafe9454,False,0.55,,,,,,,,
,p5card,107,356084,0.0-5.0-0.51,5eff7cd152e3fd04e8afe0dc,5eedb8dfd2f5e71ef21600b6,5f002f595819b111bafe9454,False,0.55,0.0,f,test,1378.1849999795668,j,0.0,,
,p5feedback,108,357382,0.0-5.0-1.51,5eff7cd152e3fd04e8afe0dc,5eedb8dfd2f5e71ef21600b6,5f002f595819b111bafe9454,False,0.55,,,,,,,,
,p5card,109,360649,0.0-5.0-0.52,5eff7cd152e3fd04e8afe0dc,5eedb8dfd2f5e71ef21600b6,5f002f595819b111bafe9454,False,0.55,0.0,f,test,1126.3250000192784,j,0.0,,
,p5feedback,110,361053,0.0-5.0-1.52,5eff7cd152e3fd04e8afe0dc,5eedb8dfd2f5e71ef21600b6,5f002f595819b111bafe9454,False,0.55,,,,,,,,
,p5card,111,364849,0.0-5.0-0.53,5eff7cd152e3fd04e8afe0dc,5eedb8dfd2f5e71ef21600b6,5f002f595819b111bafe9454,False,0.55,1.0,j,test,1660.009999992326,j,1.0,,
,p5feedback,112,365097,0.0-5.0-1.53,5eff7cd152e3fd04e8afe0dc,5eedb8dfd2f5e71ef21600b6,5f002f595819b111bafe9454,False,0.55,,,,,,,,
,p5card,113,370363,0.0-5.0-0.54,5eff7cd152e3fd04e8afe0dc,5eedb8dfd2f5e71ef21600b6,5f002f595819b111bafe9454,False,0.55,1.0,j,test,3127.710000029765,j,1.0,,
,p5feedback,114,372483,0.0-5.0-1.54,5eff7cd152e3fd04e8afe0dc,5eedb8dfd2f5e71ef21600b6,5f002f595819b111bafe9454,False,0.55,,,,,,,,
,p5card,115,375895,0.0-5.0-0.55,5eff7cd152e3fd04e8afe0dc,5eedb8dfd2f5e71ef21600b6,5f002f595819b111bafe9454,False,0.55,0.0,f,test,1234.8900000215508,f,1.0,,
,p5feedback,116,378147,0.0-5.0-1.55,5eff7cd152e3fd04e8afe0dc,5eedb8dfd2f5e71ef21600b6,5f002f595819b111bafe9454,False,0.55,,,,,,,,
,p5card,117,382142,0.0-5.0-0.56,5eff7cd152e3fd04e8afe0dc,5eedb8dfd2f5e71ef21600b6,5f002f595819b111bafe9454,False,0.55,0.0,f,test,1831.7249999963678,f,1.0,,
,p5feedback,118,383981,0.0-5.0-1.56,5eff7cd152e3fd04e8afe0dc,5eedb8dfd2f5e71ef21600b6,5f002f595819b111bafe9454,False,0.55,,,,,,,,
,p5card,119,387007,0.0-5.0-0.57,5eff7cd152e3fd04e8afe0dc,5eedb8dfd2f5e71ef21600b6,5f002f595819b111bafe9454,False,0.55,1.0,j,test,874.4300000253133,j,1.0,,
,p5feedback,120,388044,0.0-5.0-1.57,5eff7cd152e3fd04e8afe0dc,5eedb8dfd2f5e71ef21600b6,5f002f595819b111bafe9454,False,0.55,,,,,,,,
,p5card,121,391522,0.0-5.0-0.58,5eff7cd152e3fd04e8afe0dc,5eedb8dfd2f5e71ef21600b6,5f002f595819b111bafe9454,False,0.55,1.0,j,test,1348.569999972824,j,1.0,,
,p5feedback,122,393401,0.0-5.0-1.58,5eff7cd152e3fd04e8afe0dc,5eedb8dfd2f5e71ef21600b6,5f002f595819b111bafe9454,False,0.55,,,,,,,,
,p5card,123,397737,0.0-5.0-0.59,5eff7cd152e3fd04e8afe0dc,5eedb8dfd2f5e71ef21600b6,5f002f595819b111bafe9454,False,0.55,0.0,f,test,2168.604999955278,f,1.0,,
,p5feedback,124,399917,0.0-5.0-1.59,5eff7cd152e3fd04e8afe0dc,5eedb8dfd2f5e71ef21600b6,5f002f595819b111bafe9454,False,0.55,,,,,,,,
,p5card,125,403685,0.0-5.0-0.60,5eff7cd152e3fd04e8afe0dc,5eedb8dfd2f5e71ef21600b6,5f002f595819b111bafe9454,False,0.55,0.0,f,test,1583.1250000046566,j,0.0,,
,p5feedback,126,405128,0.0-5.0-1.60,5eff7cd152e3fd04e8afe0dc,5eedb8dfd2f5e71ef21600b6,5f002f595819b111bafe9454,False,0.55,,,,,,,,
,p5card,127,408250,0.0-5.0-0.61,5eff7cd152e3fd04e8afe0dc,5eedb8dfd2f5e71ef21600b6,5f002f595819b111bafe9454,False,0.55,1.0,j,test,987.5400000018999,j,1.0,,
,p5feedback,128,410312,0.0-5.0-1.61,5eff7cd152e3fd04e8afe0dc,5eedb8dfd2f5e71ef21600b6,5f002f595819b111bafe9454,False,0.55,,,,,,,,
,p5card,129,414931,0.0-5.0-0.62,5eff7cd152e3fd04e8afe0dc,5eedb8dfd2f5e71ef21600b6,5f002f595819b111bafe9454,False,0.55,0.0,f,test,2490.909999993164,f,1.0,,
,p5feedback,130,417162,0.0-5.0-1.62,5eff7cd152e3fd04e8afe0dc,5eedb8dfd2f5e71ef21600b6,5f002f595819b111bafe9454,False,0.55,,,,,,,,
,p5card,131,420713,0.0-5.0-0.63,5eff7cd152e3fd04e8afe0dc,5eedb8dfd2f5e71ef21600b6,5f002f595819b111bafe9454,False,0.55,1.0,j,test,1409.1200000257231,f,0.0,,
,p5feedback,132,422305,0.0-5.0-1.63,5eff7cd152e3fd04e8afe0dc,5eedb8dfd2f5e71ef21600b6,5f002f595819b111bafe9454,False,0.55,,,,,,,,
,p5card,133,426193,0.0-5.0-0.64,5eff7cd152e3fd04e8afe0dc,5eedb8dfd2f5e71ef21600b6,5f002f595819b111bafe9454,False,0.55,1.0,j,test,1760.759999975562,j,1.0,,
,p5feedback,134,428091,0.0-5.0-1.64,5eff7cd152e3fd04e8afe0dc,5eedb8dfd2f5e71ef21600b6,5f002f595819b111bafe9454,False,0.55,,,,,,,,
,p5card,135,433308,0.0-5.0-0.65,5eff7cd152e3fd04e8afe0dc,5eedb8dfd2f5e71ef21600b6,5f002f595819b111bafe9454,False,0.55,0.0,f,test,3052.1799999987707,j,0.0,,
,p5feedback,136,434149,0.0-5.0-1.65,5eff7cd152e3fd04e8afe0dc,5eedb8dfd2f5e71ef21600b6,5f002f595819b111bafe9454,False,0.55,,,,,,,,
,p5card,137,437756,0.0-5.0-0.66,5eff7cd152e3fd04e8afe0dc,5eedb8dfd2f5e71ef21600b6,5f002f595819b111bafe9454,False,0.55,1.0,j,test,1450.6249999976717,j,1.0,,
,p5feedback,138,440168,0.0-5.0-1.66,5eff7cd152e3fd04e8afe0dc,5eedb8dfd2f5e71ef21600b6,5f002f595819b111bafe9454,False,0.55,,,,,,,,
,p5card,139,443754,0.0-5.0-0.67,5eff7cd152e3fd04e8afe0dc,5eedb8dfd2f5e71ef21600b6,5f002f595819b111bafe9454,False,0.55,0.0,f,test,1421.715000004042,f,1.0,,
,p5feedback,140,445883,0.0-5.0-1.67,5eff7cd152e3fd04e8afe0dc,5eedb8dfd2f5e71ef21600b6,5f002f595819b111bafe9454,False,0.55,,,,,,,,
,p5card,141,449153,0.0-5.0-0.68,5eff7cd152e3fd04e8afe0dc,5eedb8dfd2f5e71ef21600b6,5f002f595819b111bafe9454,False,0.55,0.0,f,test,1109.3649999820627,f,1.0,,
,p5feedback,142,449995,0.0-5.0-1.68,5eff7cd152e3fd04e8afe0dc,5eedb8dfd2f5e71ef21600b6,5f002f595819b111bafe9454,False,0.55,,,,,,,,
,p5card,143,455050,0.0-5.0-0.69,5eff7cd152e3fd04e8afe0dc,5eedb8dfd2f5e71ef21600b6,5f002f595819b111bafe9454,False,0.55,1.0,j,test,2928.7849999964237,j,1.0,,
,p5feedback,144,457058,0.0-5.0-1.69,5eff7cd152e3fd04e8afe0dc,5eedb8dfd2f5e71ef21600b6,5f002f595819b111bafe9454,False,0.55,,,,,,,,
,p5card,145,461482,0.0-5.0-0.70,5eff7cd152e3fd04e8afe0dc,5eedb8dfd2f5e71ef21600b6,5f002f595819b111bafe9454,False,0.55,0.0,f,test,2279.1749999742024,f,1.0,,
,p5feedback,146,463279,0.0-5.0-1.70,5eff7cd152e3fd04e8afe0dc,5eedb8dfd2f5e71ef21600b6,5f002f595819b111bafe9454,False,0.55,,,,,,,,
,p5card,147,467529,0.0-5.0-0.71,5eff7cd152e3fd04e8afe0dc,5eedb8dfd2f5e71ef21600b6,5f002f595819b111bafe9454,False,0.55,1.0,j,test,2105.649999983143,j,1.0,,
,p5feedback,148,469433,0.0-5.0-1.71,5eff7cd152e3fd04e8afe0dc,5eedb8dfd2f5e71ef21600b6,5f002f595819b111bafe9454,False,0.55,,,,,,,,
,p5card,149,473295,0.0-5.0-0.72,5eff7cd152e3fd04e8afe0dc,5eedb8dfd2f5e71ef21600b6,5f002f595819b111bafe9454,False,0.55,0.0,f,test,1707.5949999853037,j,0.0,,
,p5feedback,150,474148,0.0-5.0-1.72,5eff7cd152e3fd04e8afe0dc,5eedb8dfd2f5e71ef21600b6,5f002f595819b111bafe9454,False,0.55,,,,,,,,
,p5card,151,479859,0.0-5.0-0.73,5eff7cd152e3fd04e8afe0dc,5eedb8dfd2f5e71ef21600b6,5f002f595819b111bafe9454,False,0.55,1.0,j,test,3559.1649999842048,f,0.0,,
,p5feedback,152,481363,0.0-5.0-1.73,5eff7cd152e3fd04e8afe0dc,5eedb8dfd2f5e71ef21600b6,5f002f595819b111bafe9454,False,0.55,,,,,,,,
,p5card,153,484708,0.0-5.0-0.74,5eff7cd152e3fd04e8afe0dc,5eedb8dfd2f5e71ef21600b6,5f002f595819b111bafe9454,False,0.55,1.0,j,test,1196.0049999761395,j,1.0,,
,p5feedback,154,486586,0.0-5.0-1.74,5eff7cd152e3fd04e8afe0dc,5eedb8dfd2f5e71ef21600b6,5f002f595819b111bafe9454,False,0.55,,,,,,,,
,p5card,155,489856,0.0-5.0-0.75,5eff7cd152e3fd04e8afe0dc,5eedb8dfd2f5e71ef21600b6,5f002f595819b111bafe9454,False,0.55,0.0,f,test,1134.3899999628775,j,0.0,,
,p5feedback,156,491094,0.0-5.0-1.75,5eff7cd152e3fd04e8afe0dc,5eedb8dfd2f5e71ef21600b6,5f002f595819b111bafe9454,False,0.55,,,,,,,,
,p5card,157,494438,0.0-5.0-0.76,5eff7cd152e3fd04e8afe0dc,5eedb8dfd2f5e71ef21600b6,5f002f595819b111bafe9454,False,0.55,1.0,j,test,1195.3449999564327,f,0.0,,
,p5feedback,158,495764,0.0-5.0-1.76,5eff7cd152e3fd04e8afe0dc,5eedb8dfd2f5e71ef21600b6,5f002f595819b111bafe9454,False,0.55,,,,,,,,
,p5card,159,499452,0.0-5.0-0.77,5eff7cd152e3fd04e8afe0dc,5eedb8dfd2f5e71ef21600b6,5f002f595819b111bafe9454,False,0.55,0.0,f,test,1549.1049999836832,j,0.0,,
,p5feedback,160,501145,0.0-5.0-1.77,5eff7cd152e3fd04e8afe0dc,5eedb8dfd2f5e71ef21600b6,5f002f595819b111bafe9454,False,0.55,,,,,,,,
,p5card,161,504234,0.0-5.0-0.78,5eff7cd152e3fd04e8afe0dc,5eedb8dfd2f5e71ef21600b6,5f002f595819b111bafe9454,False,0.55,0.0,f,test,926.8900000024587,j,0.0,,
,p5feedback,162,504976,0.0-5.0-1.78,5eff7cd152e3fd04e8afe0dc,5eedb8dfd2f5e71ef21600b6,5f002f595819b111bafe9454,False,0.55,,,,,,,,
,p5card,163,507916,0.0-5.0-0.79,5eff7cd152e3fd04e8afe0dc,5eedb8dfd2f5e71ef21600b6,5f002f595819b111bafe9454,False,0.55,1.0,j,test,785.0650000036694,j,1.0,,
,p5feedback,164,508729,0.0-5.0-1.79,5eff7cd152e3fd04e8afe0dc,5eedb8dfd2f5e71ef21600b6,5f002f595819b111bafe9454,False,0.55,,,,,,,,
,p5card,165,512198,0.0-5.0-0.80,5eff7cd152e3fd04e8afe0dc,5eedb8dfd2f5e71ef21600b6,5f002f595819b111bafe9454,False,0.55,1.0,j,test,1312.8349999897182,j,1.0,,
,p5feedback,166,513070,0.0-5.0-1.80,5eff7cd152e3fd04e8afe0dc,5eedb8dfd2f5e71ef21600b6,5f002f595819b111bafe9454,False,0.55,,,,,,,,
,p5card,167,517729,0.0-5.0-0.81,5eff7cd152e3fd04e8afe0dc,5eedb8dfd2f5e71ef21600b6,5f002f595819b111bafe9454,False,0.55,0.0,f,test,2474.999999976717,f,1.0,,
,p5feedback,168,519474,0.0-5.0-1.81,5eff7cd152e3fd04e8afe0dc,5eedb8dfd2f5e71ef21600b6,5f002f595819b111bafe9454,False,0.55,,,,,,,,
,p5card,169,523511,0.0-5.0-0.82,5eff7cd152e3fd04e8afe0dc,5eedb8dfd2f5e71ef21600b6,5f002f595819b111bafe9454,False,0.55,1.0,j,test,1901.1300000129268,f,0.0,,
,p5feedback,170,523586,0.0-5.0-1.82,5eff7cd152e3fd04e8afe0dc,5eedb8dfd2f5e71ef21600b6,5f002f595819b111bafe9454,False,0.55,,,,,,,,
,p5card,171,527293,0.0-5.0-0.83,5eff7cd152e3fd04e8afe0dc,5eedb8dfd2f5e71ef21600b6,5f002f595819b111bafe9454,False,0.55,0.0,f,test,1399.390000035055,f,1.0,,
,p5feedback,172,529049,0.0-5.0-1.83,5eff7cd152e3fd04e8afe0dc,5eedb8dfd2f5e71ef21600b6,5f002f595819b111bafe9454,False,0.55,,,,,,,,
,p5card,173,533490,0.0-5.0-0.84,5eff7cd152e3fd04e8afe0dc,5eedb8dfd2f5e71ef21600b6,5f002f595819b111bafe9454,False,0.55,1.0,j,test,2263.904999999795,j,1.0,,
,p5feedback,174,534433,0.0-5.0-1.84,5eff7cd152e3fd04e8afe0dc,5eedb8dfd2f5e71ef21600b6,5f002f595819b111bafe9454,False,0.55,,,,,,,,
,p5card,175,538373,0.0-5.0-0.85,5eff7cd152e3fd04e8afe0dc,5eedb8dfd2f5e71ef21600b6,5f002f595819b111bafe9454,False,0.55,0.0,f,test,1782.8499999595806,j,0.0,,
,p5feedback,176,539480,0.0-5.0-1.85,5eff7cd152e3fd04e8afe0dc,5eedb8dfd2f5e71ef21600b6,5f002f595819b111bafe9454,False,0.55,,,,,,,,
,p5card,177,543305,0.0-5.0-0.86,5eff7cd152e3fd04e8afe0dc,5eedb8dfd2f5e71ef21600b6,5f002f595819b111bafe9454,False,0.55,0.0,f,test,1662.639999995008,j,0.0,,
,p5feedback,178,544240,0.0-5.0-1.86,5eff7cd152e3fd04e8afe0dc,5eedb8dfd2f5e71ef21600b6,5f002f595819b111bafe9454,False,0.55,,,,,,,,
,p5card,179,547486,0.0-5.0-0.87,5eff7cd152e3fd04e8afe0dc,5eedb8dfd2f5e71ef21600b6,5f002f595819b111bafe9454,False,0.55,1.0,j,test,1099.0149999852292,j,1.0,,
,p5feedback,180,550977,0.0-5.0-1.87,5eff7cd152e3fd04e8afe0dc,5eedb8dfd2f5e71ef21600b6,5f002f595819b111bafe9454,False,0.55,,,,,,,,
,p5card,181,554333,0.0-5.0-0.88,5eff7cd152e3fd04e8afe0dc,5eedb8dfd2f5e71ef21600b6,5f002f595819b111bafe9454,False,0.55,1.0,j,test,1215.1450000237674,f,0.0,,
,p5feedback,182,554837,0.0-5.0-1.88,5eff7cd152e3fd04e8afe0dc,5eedb8dfd2f5e71ef21600b6,5f002f595819b111bafe9454,False,0.55,,,,,,,,
,p5card,183,559482,0.0-5.0-0.89,5eff7cd152e3fd04e8afe0dc,5eedb8dfd2f5e71ef21600b6,5f002f595819b111bafe9454,False,0.55,0.0,f,test,2508.765000035055,f,1.0,,
,p5feedback,184,561867,0.0-5.0-1.89,5eff7cd152e3fd04e8afe0dc,5eedb8dfd2f5e71ef21600b6,5f002f595819b111bafe9454,False,0.55,,,,,,,,
,survey-text,185,577605,0.0-6.0,5eff7cd152e3fd04e8afe0dc,5eedb8dfd2f5e71ef21600b6,5f002f595819b111bafe9454,False,0.55,,,,,,,15732.87500004517,"{""best_guess"":"" House, boat""}"
,survey-text,186,603602,0.0-7.0,5eff7cd152e3fd04e8afe0dc,5eedb8dfd2f5e71ef21600b6,5f002f595819b111bafe9454,False,0.55,,,,,,,25993.0100000347,"{""worker_comments"":""Tried to predict a pattern in terms of colour sequencing but didn't really work.""}"
,p5Text,187,608125,0.0-8.0,5eff7cd152e3fd04e8afe0dc,5eedb8dfd2f5e71ef21600b6,5f002f595819b111bafe9454,False,0.55,,,,,,,,
1.0,fullscreen,0,5422,0.0-0.0,5eff7cd152e3fd04e8afe0dc,5c3baa275a88cc000189ef36,5f002cb40b66531226f9af58,False,0.42,,,,,,,,
,p5Text,1,20432,0.0-1.0,5eff7cd152e3fd04e8afe0dc,5c3baa275a88cc000189ef36,5f002cb40b66531226f9af58,False,0.42,,,,,,,,
,p5Text,2,34263,0.0-2.0,5eff7cd152e3fd04e8afe0dc,5c3baa275a88cc000189ef36,5f002cb40b66531226f9af58,False,0.42,,,,,,,,
,p5Text,3,87494,0.0-3.0,5eff7cd152e3fd04e8afe0dc,5c3baa275a88cc000189ef36,5f002cb40b66531226f9af58,False,0.42,,,,,,,,
,p5Text,4,100076,0.0-4.0,5eff7cd152e3fd04e8afe0dc,5c3baa275a88cc000189ef36,5f002cb40b66531226f9af58,False,0.42,,,,,,,,
,p5card,5,105250,0.0-5.0-0.0,5eff7cd152e3fd04e8afe0dc,5c3baa275a88cc000189ef36,5f002cb40b66531226f9af58,False,0.42,1.0,j,test,,,,,
,p5feedback,6,108889,0.0-5.0-1.0,5eff7cd152e3fd04e8afe0dc,5c3baa275a88cc000189ef36,5f002cb40b66531226f9af58,False,0.42,,,,,,,,
,p5card,7,113914,0.0-5.0-0.1,5eff7cd152e3fd04e8afe0dc,5c3baa275a88cc000189ef36,5f002cb40b66531226f9af58,False,0.42,0.0,f,test,2868.1800000194926,f,1.0,,
,p5feedback,8,118950,0.0-5.0-1.1,5eff7cd152e3fd04e8afe0dc,5c3baa275a88cc000189ef36,5f002cb40b66531226f9af58,False,0.42,,,,,,,,
,p5card,9,123110,0.0-5.0-0.2,5eff7cd152e3fd04e8afe0dc,5c3baa275a88cc000189ef36,5f002cb40b66531226f9af58,False,0.42,1.0,j,test,1869.0200000128243,j,1.0,,
,p5feedback,10,126748,0.0-5.0-1.2,5eff7cd152e3fd04e8afe0dc,5c3baa275a88cc000189ef36,5f002cb40b66531226f9af58,False,0.42,,,,,,,,
,p5card,11,132174,0.0-5.0-0.3,5eff7cd152e3fd04e8afe0dc,5c3baa275a88cc000189ef36,5f002cb40b66531226f9af58,False,0.42,0.0,f,test,3252.9649999924004,f,1.0,,
,p5feedback,12,135162,0.0-5.0-1.3,5eff7cd152e3fd04e8afe0dc,5c3baa275a88cc000189ef36,5f002cb40b66531226f9af58,False,0.42,,,,,,,,
,p5card,13,141570,0.0-5.0-0.4,5eff7cd152e3fd04e8afe0dc,5c3baa275a88cc000189ef36,5f002cb40b66531226f9af58,False,0.42,1.0,j,test,4250.995000009425,j,1.0,,
,p5feedback,14,146209,0.0-5.0-1.4,5eff7cd152e3fd04e8afe0dc,5c3baa275a88cc000189ef36,5f002cb40b66531226f9af58,False,0.42,,,,,,,,
,p5card,15,151067,0.0-5.0-0.5,5eff7cd152e3fd04e8afe0dc,5c3baa275a88cc000189ef36,5f002cb40b66531226f9af58,False,0.42,0.0,f,test,2652.8399999951944,f,1.0,,
,p5feedback,16,154821,0.0-5.0-1.5,5eff7cd152e3fd04e8afe0dc,5c3baa275a88cc000189ef36,5f002cb40b66531226f9af58,False,0.42,,,,,,,,
,p5card,17,159331,0.0-5.0-0.6,5eff7cd152e3fd04e8afe0dc,5c3baa275a88cc000189ef36,5f002cb40b66531226f9af58,False,0.42,0.0,f,test,2339.899999991758,f,1.0,,
,p5feedback,18,167315,0.0-5.0-1.6,5eff7cd152e3fd04e8afe0dc,5c3baa275a88cc000189ef36,5f002cb40b66531226f9af58,False,0.42,,,,,,,,
,p5card,19,171309,0.0-5.0-0.7,5eff7cd152e3fd04e8afe0dc,5c3baa275a88cc000189ef36,5f002cb40b66531226f9af58,False,0.42,1.0,j,test,1814.0600000042468,f,0.0,,
,p5feedback,20,174037,0.0-5.0-1.7,5eff7cd152e3fd04e8afe0dc,5c3baa275a88cc000189ef36,5f002cb40b66531226f9af58,False,0.42,,,,,,,,
,p5card,21,178557,0.0-5.0-0.8,5eff7cd152e3fd04e8afe0dc,5c3baa275a88cc000189ef36,5f002cb40b66531226f9af58,False,0.42,0.0,f,test,2359.024999983376,j,0.0,,
,p5feedback,22,179831,0.0-5.0-1.8,5eff7cd152e3fd04e8afe0dc,5c3baa275a88cc000189ef36,5f002cb40b66531226f9af58,False,0.42,,,,,,,,
,p5card,23,182806,0.0-5.0-0.9,5eff7cd152e3fd04e8afe0dc,5c3baa275a88cc000189ef36,5f002cb40b66531226f9af58,False,0.42,1.0,j,test,733.8849999941885,f,0.0,,
,p5feedback,24,184310,0.0-5.0-1.9,5eff7cd152e3fd04e8afe0dc,5c3baa275a88cc000189ef36,5f002cb40b66531226f9af58,False,0.42,,,,,,,,
,p5card,25,188154,0.0-5.0-0.10,5eff7cd152e3fd04e8afe0dc,5c3baa275a88cc000189ef36,5f002cb40b66531226f9af58,False,0.42,0.0,f,test,1625.6199999770615,f,1.0,,
,p5feedback,26,189443,0.0-5.0-1.10,5eff7cd152e3fd04e8afe0dc,5c3baa275a88cc000189ef36,5f002cb40b66531226f9af58,False,0.42,,,,,,,,
,p5card,27,193369,0.0-5.0-0.11,5eff7cd152e3fd04e8afe0dc,5c3baa275a88cc000189ef36,5f002cb40b66531226f9af58,False,0.42,1.0,j,test,1491.1600000050385,j,1.0,,
,p5feedback,28,195708,0.0-5.0-1.11,5eff7cd152e3fd04e8afe0dc,5c3baa275a88cc000189ef36,5f002cb40b66531226f9af58,False,0.42,,,,,,,,
,p5card,29,202184,0.0-5.0-0.12,5eff7cd152e3fd04e8afe0dc,5c3baa275a88cc000189ef36,5f002cb40b66531226f9af58,False,0.42,0.0,f,test,3838.5350000171456,f,1.0,,
,p5feedback,30,204339,0.0-5.0-1.12,5eff7cd152e3fd04e8afe0dc,5c3baa275a88cc000189ef36,5f002cb40b66531226f9af58,False,0.42,,,,,,,,
,p5card,31,207531,0.0-5.0-0.13,5eff7cd152e3fd04e8afe0dc,5c3baa275a88cc000189ef36,5f002cb40b66531226f9af58,False,0.42,1.0,j,test,991.9850000005681,f,0.0,,
,p5feedback,32,228286,0.0-5.0-1.13,5eff7cd152e3fd04e8afe0dc,5c3baa275a88cc000189ef36,5f002cb40b66531226f9af58,False,0.42,,,,,,,,
,p5card,33,234939,0.0-5.0-0.14,5eff7cd152e3fd04e8afe0dc,5c3baa275a88cc000189ef36,5f002cb40b66531226f9af58,False,0.42,0.0,f,test,4438.590000005206,j,0.0,,
,p5feedback,34,238961,0.0-5.0-1.14,5eff7cd152e3fd04e8afe0dc,5c3baa275a88cc000189ef36,5f002cb40b66531226f9af58,False,0.42,,,,,,,,
,p5card,35,244269,0.0-5.0-0.15,5eff7cd152e3fd04e8afe0dc,5c3baa275a88cc000189ef36,5f002cb40b66531226f9af58,False,0.42,1.0,j,test,3119.6899999922607,f,0.0,,
,p5feedback,36,245341,0.0-5.0-1.15,5eff7cd152e3fd04e8afe0dc,5c3baa275a88cc000189ef36,5f002cb40b66531226f9af58,False,0.42,,,,,,,,
,p5card,37,249517,0.0-5.0-0.16,5eff7cd152e3fd04e8afe0dc,5c3baa275a88cc000189ef36,5f002cb40b66531226f9af58,False,0.42,1.0,j,test,1990.6349999946542,f,0.0,,
,p5feedback,38,250558,0.0-5.0-1.16,5eff7cd152e3fd04e8afe0dc,5c3baa275a88cc000189ef36,5f002cb40b66531226f9af58,False,0.42,,,,,,,,
,p5card,39,256682,0.0-5.0-0.17,5eff7cd152e3fd04e8afe0dc,5c3baa275a88cc000189ef36,5f002cb40b66531226f9af58,False,0.42,0.0,f,test,3898.5150000080466,j,0.0,,
,p5feedback,40,257406,0.0-5.0-1.17,5eff7cd152e3fd04e8afe0dc,5c3baa275a88cc000189ef36,5f002cb40b66531226f9af58,False,0.42,,,,,,,,
,p5card,41,264146,0.0-5.0-0.18,5eff7cd152e3fd04e8afe0dc,5c3baa275a88cc000189ef36,5f002cb40b66531226f9af58,False,0.42,0.0,f,test,4554.015000001527,j,0.0,,
,p5feedback,42,265300,0.0-5.0-1.18,5eff7cd152e3fd04e8afe0dc,5c3baa275a88cc000189ef36,5f002cb40b66531226f9af58,False,0.42,,,,,,,,
,p5card,43,269377,0.0-5.0-0.19,5eff7cd152e3fd04e8afe0dc,5c3baa275a88cc000189ef36,5f002cb40b66531226f9af58,False,0.42,1.0,j,test,1647.5400000053924,j,1.0,,
,p5feedback,44,270734,0.0-5.0-1.19,5eff7cd152e3fd04e8afe0dc,5c3baa275a88cc000189ef36,5f002cb40b66531226f9af58,False,0.42,,,,,,,,
,p5card,45,273693,0.0-5.0-0.20,5eff7cd152e3fd04e8afe0dc,5c3baa275a88cc000189ef36,5f002cb40b66531226f9af58,False,0.42,0.0,f,test,768.6099999991711,j,0.0,,
,p5feedback,46,274616,0.0-5.0-1.20,5eff7cd152e3fd04e8afe0dc,5c3baa275a88cc000189ef36,5f002cb40b66531226f9af58,False,0.42,,,,,,,,
,p5card,47,281773,0.0-5.0-0.21,5eff7cd152e3fd04e8afe0dc,5c3baa275a88cc000189ef36,5f002cb40b66531226f9af58,False,0.42,1.0,j,test,4986.239999998361,j,1.0,,
,p5feedback,48,282486,0.0-5.0-1.21,5eff7cd152e3fd04e8afe0dc,5c3baa275a88cc000189ef36,5f002cb40b66531226f9af58,False,0.42,,,,,,,,
,p5card,49,285705,0.0-5.0-0.22,5eff7cd152e3fd04e8afe0dc,5c3baa275a88cc000189ef36,5f002cb40b66531226f9af58,False,0.42,0.0,f,test,1017.5250000029337,j,0.0,,
,p5feedback,50,286609,0.0-5.0-1.22,5eff7cd152e3fd04e8afe0dc,5c3baa275a88cc000189ef36,5f002cb40b66531226f9af58,False,0.42,,,,,,,,
,p5card,51,292436,0.0-5.0-0.23,5eff7cd152e3fd04e8afe0dc,5c3baa275a88cc000189ef36,5f002cb40b66531226f9af58,False,0.42,1.0,j,test,3640.3149999969173,j,1.0,,
,p5feedback,52,293030,0.0-5.0-1.23,5eff7cd152e3fd04e8afe0dc,5c3baa275a88cc000189ef36,5f002cb40b66531226f9af58,False,0.42,,,,,,,,
,p5card,53,296568,0.0-5.0-0.24,5eff7cd152e3fd04e8afe0dc,5c3baa275a88cc000189ef36,5f002cb40b66531226f9af58,False,0.42,0.0,f,test,1300.504999991972,j,0.0,,
,p5feedback,54,297341,0.0-5.0-1.24,5eff7cd152e3fd04e8afe0dc,5c3baa275a88cc000189ef36,5f002cb40b66531226f9af58,False,0.42,,,,,,,,
,p5card,55,302782,0.0-5.0-0.25,5eff7cd152e3fd04e8afe0dc,5c3baa275a88cc000189ef36,5f002cb40b66531226f9af58,False,0.42,1.0,j,test,3241.359999985434,j,1.0,,
,p5feedback,56,303044,0.0-5.0-1.25,5eff7cd152e3fd04e8afe0dc,5c3baa275a88cc000189ef36,5f002cb40b66531226f9af58,False,0.42,,,,,,,,
,p5card,57,306414,0.0-5.0-0.26,5eff7cd152e3fd04e8afe0dc,5c3baa275a88cc000189ef36,5f002cb40b66531226f9af58,False,0.42,0.0,f,test,1203.8600000087172,j,0.0,,
,p5feedback,58,307138,0.0-5.0-1.26,5eff7cd152e3fd04e8afe0dc,5c3baa275a88cc000189ef36,5f002cb40b66531226f9af58,False,0.42,,,,,,,,
,p5card,59,312295,0.0-5.0-0.27,5eff7cd152e3fd04e8afe0dc,5c3baa275a88cc000189ef36,5f002cb40b66531226f9af58,False,0.42,1.0,j,test,,,,,
,p5feedback,60,313434,0.0-5.0-1.27,5eff7cd152e3fd04e8afe0dc,5c3baa275a88cc000189ef36,5f002cb40b66531226f9af58,False,0.42,,,,,,,,
,p5card,61,318894,0.0-5.0-0.28,5eff7cd152e3fd04e8afe0dc,5c3baa275a88cc000189ef36,5f002cb40b66531226f9af58,False,0.42,1.0,j,test,3291.9549999933224,j,1.0,,
,p5feedback,62,319650,0.0-5.0-1.28,5eff7cd152e3fd04e8afe0dc,5c3baa275a88cc000189ef36,5f002cb40b66531226f9af58,False,0.42,,,,,,,,
,p5card,63,322993,0.0-5.0-0.29,5eff7cd152e3fd04e8afe0dc,5c3baa275a88cc000189ef36,5f002cb40b66531226f9af58,False,0.42,0.0,f,test,1143.8650000200141,j,0.0,,
,p5feedback,64,323892,0.0-5.0-1.29,5eff7cd152e3fd04e8afe0dc,5c3baa275a88cc000189ef36,5f002cb40b66531226f9af58,False,0.42,,,,,,,,
,p5card,65,329625,0.0-5.0-0.30,5eff7cd152e3fd04e8afe0dc,5c3baa275a88cc000189ef36,5f002cb40b66531226f9af58,False,0.42,1.0,j,test,3549.3299999798182,j,1.0,,
,p5feedback,66,330845,0.0-5.0-1.30,5eff7cd152e3fd04e8afe0dc,5c3baa275a88cc000189ef36,5f002cb40b66531226f9af58,False,0.42,,,,,,,,
,p5card,67,334922,0.0-5.0-0.31,5eff7cd152e3fd04e8afe0dc,5c3baa275a88cc000189ef36,5f002cb40b66531226f9af58,False,0.42,0.0,f,test,1898.1000000203494,j,0.0,,
,p5feedback,68,335849,0.0-5.0-1.31,5eff7cd152e3fd04e8afe0dc,5c3baa275a88cc000189ef36,5f002cb40b66531226f9af58,False,0.42,,,,,,,,
,p5card,69,342171,0.0-5.0-0.32,5eff7cd152e3fd04e8afe0dc,5c3baa275a88cc000189ef36,5f002cb40b66531226f9af58,False,0.42,0.0,f,test,4174.385000020266,j,0.0,,
,p5feedback,70,344290,0.0-5.0-1.32,5eff7cd152e3fd04e8afe0dc,5c3baa275a88cc000189ef36,5f002cb40b66531226f9af58,False,0.42,,,,,,,,
,p5card,71,348468,0.0-5.0-0.33,5eff7cd152e3fd04e8afe0dc,5c3baa275a88cc000189ef36,5f002cb40b66531226f9af58,False,0.42,1.0,j,test,1994.444999989355,f,0.0,,
,p5feedback,72,349320,0.0-5.0-1.33,5eff7cd152e3fd04e8afe0dc,5c3baa275a88cc000189ef36,5f002cb40b66531226f9af58,False,0.42,,,,,,,,
,p5card,73,354732,0.0-5.0-0.34,5eff7cd152e3fd04e8afe0dc,5c3baa275a88cc000189ef36,5f002cb40b66531226f9af58,False,0.42,0.0,f,test,3228.754999989178,j,0.0,,
,p5feedback,74,368265,0.0-5.0-1.34,5eff7cd152e3fd04e8afe0dc,5c3baa275a88cc000189ef36,5f002cb40b66531226f9af58,False,0.42,,,,,,,,
,p5card,75,374242,0.0-5.0-0.35,5eff7cd152e3fd04e8afe0dc,5c3baa275a88cc000189ef36,5f002cb40b66531226f9af58,False,0.42,1.0,j,test,3806.9499999983236,j,1.0,,
,p5feedback,76,375118,0.0-5.0-1.35,5eff7cd152e3fd04e8afe0dc,5c3baa275a88cc000189ef36,5f002cb40b66531226f9af58,False,0.42,,,,,,,,
,p5card,77,379224,0.0-5.0-0.36,5eff7cd152e3fd04e8afe0dc,5c3baa275a88cc000189ef36,5f002cb40b66531226f9af58,False,0.42,1.0,j,test,1937.3449999839067,f,0.0,,
,p5feedback,78,380162,0.0-5.0-1.36,5eff7cd152e3fd04e8afe0dc,5c3baa275a88cc000189ef36,5f002cb40b66531226f9af58,False,0.42,,,,,,,,
,p5card,79,385255,0.0-5.0-0.37,5eff7cd152e3fd04e8afe0dc,5c3baa275a88cc000189ef36,5f002cb40b66531226f9af58,False,0.42,0.0,f,test,2435.704999981681,f,1.0,,
,p5feedback,80,386262,0.0-5.0-1.37,5eff7cd152e3fd04e8afe0dc,5c3baa275a88cc000189ef36,5f002cb40b66531226f9af58,False,0.42,,,,,,,,
,p5card,81,390036,0.0-5.0-0.38,5eff7cd152e3fd04e8afe0dc,5c3baa275a88cc000189ef36,5f002cb40b66531226f9af58,False,0.42,0.0,f,test,1626.99000001885,j,0.0,,
,p5feedback,82,390655,0.0-5.0-1.38,5eff7cd152e3fd04e8afe0dc,5c3baa275a88cc000189ef36,5f002cb40b66531226f9af58,False,0.42,,,,,,,,
,p5card,83,396951,0.0-5.0-0.39,5eff7cd152e3fd04e8afe0dc,5c3baa275a88cc000189ef36,5f002cb40b66531226f9af58,False,0.42,1.0,j,test,4153.519999992568,f,0.0,,
,p5feedback,84,398098,0.0-5.0-1.39,5eff7cd152e3fd04e8afe0dc,5c3baa275a88cc000189ef36,5f002cb40b66531226f9af58,False,0.42,,,,,,,,
,p5card,85,402252,0.0-5.0-0.40,5eff7cd152e3fd04e8afe0dc,5c3baa275a88cc000189ef36,5f002cb40b66531226f9af58,False,0.42,0.0,f,test,1889.1500000027008,f,1.0,,
,p5feedback,86,403545,0.0-5.0-1.40,5eff7cd152e3fd04e8afe0dc,5c3baa275a88cc000189ef36,5f002cb40b66531226f9af58,False,0.42,,,,,,,,
,p5card,87,406780,0.0-5.0-0.41,5eff7cd152e3fd04e8afe0dc,5c3baa275a88cc000189ef36,5f002cb40b66531226f9af58,False,0.42,1.0,j,test,863.3950000221375,f,0.0,,
,p5feedback,88,419436,0.0-5.0-1.41,5eff7cd152e3fd04e8afe0dc,5c3baa275a88cc000189ef36,5f002cb40b66531226f9af58,False,0.42,,,,,,,,
,p5card,89,424041,0.0-5.0-0.42,5eff7cd152e3fd04e8afe0dc,5c3baa275a88cc000189ef36,5f002cb40b66531226f9af58,False,0.42,0.0,f,test,2415.4799999960233,j,0.0,,
,p5feedback,90,427113,0.0-5.0-1.42,5eff7cd152e3fd04e8afe0dc,5c3baa275a88cc000189ef36,5f002cb40b66531226f9af58,False,0.42,,,,,,,,
,p5card,91,432772,0.0-5.0-0.43,5eff7cd152e3fd04e8afe0dc,5c3baa275a88cc000189ef36,5f002cb40b66531226f9af58,False,0.42,1.0,j,test,3506.105000007665,j,1.0,,
,p5feedback,92,438339,0.0-5.0-1.43,5eff7cd152e3fd04e8afe0dc,5c3baa275a88cc000189ef36,5f002cb40b66531226f9af58,False,0.42,,,,,,,,
,p5card,93,443001,0.0-5.0-0.44,5eff7cd152e3fd04e8afe0dc,5c3baa275a88cc000189ef36,5f002cb40b66531226f9af58,False,0.42,1.0,j,test,2112.584999995306,f,0.0,,
,p5feedback,94,444205,0.0-5.0-1.44,5eff7cd152e3fd04e8afe0dc,5c3baa275a88cc000189ef36,5f002cb40b66531226f9af58,False,0.42,,,,,,,,
,p5card,95,449316,0.0-5.0-0.45,5eff7cd152e3fd04e8afe0dc,5c3baa275a88cc000189ef36,5f002cb40b66531226f9af58,False,0.42,0.0,f,test,2960.2999999769963,j,0.0,,
,p5feedback,96,450174,0.0-5.0-1.45,5eff7cd152e3fd04e8afe0dc,5c3baa275a88cc000189ef36,5f002cb40b66531226f9af58,False,0.42,,,,,,,,
,p5card,97,454930,0.0-5.0-0.46,5eff7cd152e3fd04e8afe0dc,5c3baa275a88cc000189ef36,5f002cb40b66531226f9af58,False,0.42,1.0,j,test,2582.879999972647,j,1.0,,
,p5feedback,98,457400,0.0-5.0-1.46,5eff7cd152e3fd04e8afe0dc,5c3baa275a88cc000189ef36,5f002cb40b66531226f9af58,False,0.42,,,,,,,,
,p5card,99,462545,0.0-5.0-0.47,5eff7cd152e3fd04e8afe0dc,5c3baa275a88cc000189ef36,5f002cb40b66531226f9af58,False,0.42,0.0,f,test,2965.1449999946635,f,1.0,,
,p5feedback,100,463356,0.0-5.0-1.47,5eff7cd152e3fd04e8afe0dc,5c3baa275a88cc000189ef36,5f002cb40b66531226f9af58,False,0.42,,,,,,,,
,p5card,101,467377,0.0-5.0-0.48,5eff7cd152e3fd04e8afe0dc,5c3baa275a88cc000189ef36,5f002cb40b66531226f9af58,False,0.42,0.0,f,test,1841.2099999841303,f,1.0,,
,p5feedback,102,468068,0.0-5.0-1.48,5eff7cd152e3fd04e8afe0dc,5c3baa275a88cc000189ef36,5f002cb40b66531226f9af58,False,0.42,,,,,,,,
,p5card,103,471375,0.0-5.0-0.49,5eff7cd152e3fd04e8afe0dc,5c3baa275a88cc000189ef36,5f002cb40b66531226f9af58,False,0.42,1.0,j,test,1101.5250000054948,f,0.0,,
,p5feedback,104,472687,0.0-5.0-1.49,5eff7cd152e3fd04e8afe0dc,5c3baa275a88cc000189ef36,5f002cb40b66531226f9af58,False,0.42,,,,,,,,
,p5card,105,477540,0.0-5.0-0.50,5eff7cd152e3fd04e8afe0dc,5c3baa275a88cc000189ef36,5f002cb40b66531226f9af58,False,0.42,1.0,j,test,2678.3350000041537,f,0.0,,
,p5feedback,106,478981,0.0-5.0-1.50,5eff7cd152e3fd04e8afe0dc,5c3baa275a88cc000189ef36,5f002cb40b66531226f9af58,False,0.42,,,,,,,,
,p5card,107,484137,0.0-5.0-0.51,5eff7cd152e3fd04e8afe0dc,5c3baa275a88cc000189ef36,5f002cb40b66531226f9af58,False,0.42,0.0,f,test,3011.0749999876134,f,1.0,,
,p5feedback,108,484974,0.0-5.0-1.51,5eff7cd152e3fd04e8afe0dc,5c3baa275a88cc000189ef36,5f002cb40b66531226f9af58,False,0.42,,,,,,,,
,p5card,109,488753,0.0-5.0-0.52,5eff7cd152e3fd04e8afe0dc,5c3baa275a88cc000189ef36,5f002cb40b66531226f9af58,False,0.42,1.0,j,test,1602.0900000003166,j,1.0,,
,p5feedback,110,489695,0.0-5.0-1.52,5eff7cd152e3fd04e8afe0dc,5c3baa275a88cc000189ef36,5f002cb40b66531226f9af58,False,0.42,,,,,,,,
,p5card,111,494618,0.0-5.0-0.53,5eff7cd152e3fd04e8afe0dc,5c3baa275a88cc000189ef36,5f002cb40b66531226f9af58,False,0.42,0.0,f,test,2757.62499999837,f,1.0,,
,p5feedback,112,495458,0.0-5.0-1.53,5eff7cd152e3fd04e8afe0dc,5c3baa275a88cc000189ef36,5f002cb40b66531226f9af58,False,0.42,,,,,,,,
,p5card,113,499403,0.0-5.0-0.54,5eff7cd152e3fd04e8afe0dc,5c3baa275a88cc000189ef36,5f002cb40b66531226f9af58,False,0.42,1.0,j,test,1682.8200000163633,j,1.0,,
,p5feedback,114,499995,0.0-5.0-1.54,5eff7cd152e3fd04e8afe0dc,5c3baa275a88cc000189ef36,5f002cb40b66531226f9af58,False,0.42,,,,,,,,
,p5card,115,504081,0.0-5.0-0.55,5eff7cd152e3fd04e8afe0dc,5c3baa275a88cc000189ef36,5f002cb40b66531226f9af58,False,0.42,0.0,f,test,1884.2799999983981,f,1.0,,
,p5feedback,116,504801,0.0-5.0-1.55,5eff7cd152e3fd04e8afe0dc,5c3baa275a88cc000189ef36,5f002cb40b66531226f9af58,False,0.42,,,,,,,,
,p5card,117,509497,0.0-5.0-0.56,5eff7cd152e3fd04e8afe0dc,5c3baa275a88cc000189ef36,5f002cb40b66531226f9af58,False,0.42,1.0,j,test,2533.950000011828,f,0.0,,
,p5feedback,118,513849,0.0-5.0-1.56,5eff7cd152e3fd04e8afe0dc,5c3baa275a88cc000189ef36,5f002cb40b66531226f9af58,False,0.42,,,,,,,,
,p5card,119,519559,0.0-5.0-0.57,5eff7cd152e3fd04e8afe0dc,5c3baa275a88cc000189ef36,5f002cb40b66531226f9af58,False,0.42,0.0,f,test,3277.6949999970384,f,1.0,,
,p5feedback,120,521198,0.0-5.0-1.57,5eff7cd152e3fd04e8afe0dc,5c3baa275a88cc000189ef36,5f002cb40b66531226f9af58,False,0.42,,,,,,,,
,p5card,121,525207,0.0-5.0-0.58,5eff7cd152e3fd04e8afe0dc,5c3baa275a88cc000189ef36,5f002cb40b66531226f9af58,False,0.42,0.0,f,test,1867.1599999943282,j,0.0,,
,p5feedback,122,526015,0.0-5.0-1.58,5eff7cd152e3fd04e8afe0dc,5c3baa275a88cc000189ef36,5f002cb40b66531226f9af58,False,0.42,,,,,,,,
,p5card,123,530256,0.0-5.0-0.59,5eff7cd152e3fd04e8afe0dc,5c3baa275a88cc000189ef36,5f002cb40b66531226f9af58,False,0.42,1.0,j,test,2067.7450000075623,f,0.0,,
,p5feedback,124,531027,0.0-5.0-1.59,5eff7cd152e3fd04e8afe0dc,5c3baa275a88cc000189ef36,5f002cb40b66531226f9af58,False,0.42,,,,,,,,
,p5card,125,535787,0.0-5.0-0.60,5eff7cd152e3fd04e8afe0dc,5c3baa275a88cc000189ef36,5f002cb40b66531226f9af58,False,0.42,0.0,f,test,2588.3949999988545,f,1.0,,
,p5feedback,126,536495,0.0-5.0-1.60,5eff7cd152e3fd04e8afe0dc,5c3baa275a88cc000189ef36,5f002cb40b66531226f9af58,False,0.42,,,,,,,,
,p5card,127,539952,0.0-5.0-0.61,5eff7cd152e3fd04e8afe0dc,5c3baa275a88cc000189ef36,5f002cb40b66531226f9af58,False,0.42,1.0,j,test,1297.8949999960605,j,1.0,,
,p5feedback,128,540962,0.0-5.0-1.61,5eff7cd152e3fd04e8afe0dc,5c3baa275a88cc000189ef36,5f002cb40b66531226f9af58,False,0.42,,,,,,,,
,p5card,129,544150,0.0-5.0-0.62,5eff7cd152e3fd04e8afe0dc,5c3baa275a88cc000189ef36,5f002cb40b66531226f9af58,False,0.42,0.0,f,test,994.8199999926146,j,0.0,,
,p5feedback,130,544847,0.0-5.0-1.62,5eff7cd152e3fd04e8afe0dc,5c3baa275a88cc000189ef36,5f002cb40b66531226f9af58,False,0.42,,,,,,,,
,p5card,131,550032,0.0-5.0-0.63,5eff7cd152e3fd04e8afe0dc,5c3baa275a88cc000189ef36,5f002cb40b66531226f9af58,False,0.42,1.0,j,test,,,,,
,p5feedback,132,551029,0.0-5.0-1.63,5eff7cd152e3fd04e8afe0dc,5c3baa275a88cc000189ef36,5f002cb40b66531226f9af58,False,0.42,,,,,,,,
,p5card,133,555764,0.0-5.0-0.64,5eff7cd152e3fd04e8afe0dc,5c3baa275a88cc000189ef36,5f002cb40b66531226f9af58,False,0.42,1.0,j,test,2524.9649999896064,f,0.0,,
,p5feedback,134,558416,0.0-5.0-1.64,5eff7cd152e3fd04e8afe0dc,5c3baa275a88cc000189ef36,5f002cb40b66531226f9af58,False,0.42,,,,,,,,
,p5card,135,563745,0.0-5.0-0.65,5eff7cd152e3fd04e8afe0dc,5c3baa275a88cc000189ef36,5f002cb40b66531226f9af58,False,0.42,0.0,f,test,3128.0949999927543,j,0.0,,
,p5feedback,136,565166,0.0-5.0-1.65,5eff7cd152e3fd04e8afe0dc,5c3baa275a88cc000189ef36,5f002cb40b66531226f9af58,False,0.42,,,,,,,,
,p5card,137,569142,0.0-5.0-0.66,5eff7cd152e3fd04e8afe0dc,5c3baa275a88cc000189ef36,5f002cb40b66531226f9af58,False,0.42,1.0,j,test,1823.275000002468,j,1.0,,
,p5feedback,138,575995,0.0-5.0-1.66,5eff7cd152e3fd04e8afe0dc,5c3baa275a88cc000189ef36,5f002cb40b66531226f9af58,False,0.42,,,,,,,,
,p5card,139,579156,0.0-5.0-0.67,5eff7cd152e3fd04e8afe0dc,5c3baa275a88cc000189ef36,5f002cb40b66531226f9af58,False,0.42,0.0,f,test,979.9300000013318,j,0.0,,
,p5feedback,140,579845,0.0-5.0-1.67,5eff7cd152e3fd04e8afe0dc,5c3baa275a88cc000189ef36,5f002cb40b66531226f9af58,False,0.42,,,,,,,,
,p5card,141,586369,0.0-5.0-0.68,5eff7cd152e3fd04e8afe0dc,5c3baa275a88cc000189ef36,5f002cb40b66531226f9af58,False,0.42,0.0,f,test,4334.724999993341,j,0.0,,
,p5feedback,142,587177,0.0-5.0-1.68,5eff7cd152e3fd04e8afe0dc,5c3baa275a88cc000189ef36,5f002cb40b66531226f9af58,False,0.42,,,,,,,,
,p5card,143,592334,0.0-5.0-0.69,5eff7cd152e3fd04e8afe0dc,5c3baa275a88cc000189ef36,5f002cb40b66531226f9af58,False,0.42,1.0,j,test,,,,,
,p5feedback,144,593106,0.0-5.0-1.69,5eff7cd152e3fd04e8afe0dc,5c3baa275a88cc000189ef36,5f002cb40b66531226f9af58,False,0.42,,,,,,,,
,p5card,145,596666,0.0-5.0-0.70,5eff7cd152e3fd04e8afe0dc,5c3baa275a88cc000189ef36,5f002cb40b66531226f9af58,False,0.42,0.0,f,test,1390.8700000029057,f,1.0,,
,p5feedback,146,597629,0.0-5.0-1.70,5eff7cd152e3fd04e8afe0dc,5c3baa275a88cc000189ef36,5f002cb40b66531226f9af58,False,0.42,,,,,,,,
,p5card,147,601164,0.0-5.0-0.71,5eff7cd152e3fd04e8afe0dc,5c3baa275a88cc000189ef36,5f002cb40b66531226f9af58,False,0.42,1.0,j,test,1334.2450000054669,j,1.0,,
,p5feedback,148,601822,0.0-5.0-1.71,5eff7cd152e3fd04e8afe0dc,5c3baa275a88cc000189ef36,5f002cb40b66531226f9af58,False,0.42,,,,,,,,
,p5card,149,605246,0.0-5.0-0.72,5eff7cd152e3fd04e8afe0dc,5c3baa275a88cc000189ef36,5f002cb40b66531226f9af58,False,0.42,1.0,j,test,1235.4850000119768,j,1.0,,
,p5feedback,150,605936,0.0-5.0-1.72,5eff7cd152e3fd04e8afe0dc,5c3baa275a88cc000189ef36,5f002cb40b66531226f9af58,False,0.42,,,,,,,,
,p5card,151,609895,0.0-5.0-0.73,5eff7cd152e3fd04e8afe0dc,5c3baa275a88cc000189ef36,5f002cb40b66531226f9af58,False,0.42,0.0,f,test,1785.1550000195857,f,1.0,,
,p5feedback,152,610552,0.0-5.0-1.73,5eff7cd152e3fd04e8afe0dc,5c3baa275a88cc000189ef36,5f002cb40b66531226f9af58,False,0.42,,,,,,,,
,p5card,153,614110,0.0-5.0-0.74,5eff7cd152e3fd04e8afe0dc,5c3baa275a88cc000189ef36,5f002cb40b66531226f9af58,False,0.42,0.0,f,test,1377.0300000032876,j,0.0,,
,p5feedback,154,615198,0.0-5.0-1.74,5eff7cd152e3fd04e8afe0dc,5c3baa275a88cc000189ef36,5f002cb40b66531226f9af58,False,0.42,,,,,,,,
,p5card,155,618942,0.0-5.0-0.75,5eff7cd152e3fd04e8afe0dc,5c3baa275a88cc000189ef36,5f002cb40b66531226f9af58,False,0.42,1.0,j,test,1601.6850000014529,j,1.0,,
,p5feedback,156,619597,0.0-5.0-1.75,5eff7cd152e3fd04e8afe0dc,5c3baa275a88cc000189ef36,5f002cb40b66531226f9af58,False,0.42,,,,,,,,
,p5card,157,623856,0.0-5.0-0.76,5eff7cd152e3fd04e8afe0dc,5c3baa275a88cc000189ef36,5f002cb40b66531226f9af58,False,0.42,1.0,j,test,2084.7500000090804,f,0.0,,
,p5feedback,158,628744,0.0-5.0-1.76,5eff7cd152e3fd04e8afe0dc,5c3baa275a88cc000189ef36,5f002cb40b66531226f9af58,False,0.42,,,,,,,,
,p5card,159,632970,0.0-5.0-0.77,5eff7cd152e3fd04e8afe0dc,5c3baa275a88cc000189ef36,5f002cb40b66531226f9af58,False,0.42,0.0,f,test,2052.1500000031665,f,1.0,,
,p5feedback,160,634095,0.0-5.0-1.77,5eff7cd152e3fd04e8afe0dc,5c3baa275a88cc000189ef36,5f002cb40b66531226f9af58,False,0.42,,,,,,,,
,p5card,161,638421,0.0-5.0-0.78,5eff7cd152e3fd04e8afe0dc,5c3baa275a88cc000189ef36,5f002cb40b66531226f9af58,False,0.42,0.0,f,test,2129.8100000130944,j,0.0,,
,p5feedback,162,642130,0.0-5.0-1.78,5eff7cd152e3fd04e8afe0dc,5c3baa275a88cc000189ef36,5f002cb40b66531226f9af58,False,0.42,,,,,,,,
,p5card,163,645932,0.0-5.0-0.79,5eff7cd152e3fd04e8afe0dc,5c3baa275a88cc000189ef36,5f002cb40b66531226f9af58,False,0.42,1.0,j,test,1643.8599999819417,j,1.0,,
,p5feedback,164,646671,0.0-5.0-1.79,5eff7cd152e3fd04e8afe0dc,5c3baa275a88cc000189ef36,5f002cb40b66531226f9af58,False,0.42,,,,,,,,
,p5card,165,649947,0.0-5.0-0.80,5eff7cd152e3fd04e8afe0dc,5c3baa275a88cc000189ef36,5f002cb40b66531226f9af58,False,0.42,0.0,f,test,1121.0849999915808,j,0.0,,
,p5feedback,166,650741,0.0-5.0-1.80,5eff7cd152e3fd04e8afe0dc,5c3baa275a88cc000189ef36,5f002cb40b66531226f9af58,False,0.42,,,,,,,,
,p5card,167,657612,0.0-5.0-0.81,5eff7cd152e3fd04e8afe0dc,5c3baa275a88cc000189ef36,5f002cb40b66531226f9af58,False,0.42,1.0,j,test,4169.744999991963,j,1.0,,
,p5feedback,168,657815,0.0-5.0-1.81,5eff7cd152e3fd04e8afe0dc,5c3baa275a88cc000189ef36,5f002cb40b66531226f9af58,False,0.42,,,,,,,,
,p5card,169,662342,0.0-5.0-0.82,5eff7cd152e3fd04e8afe0dc,5c3baa275a88cc000189ef36,5f002cb40b66531226f9af58,False,0.42,1.0,j,test,2304.5299999939743,f,0.0,,
,p5feedback,170,663431,0.0-5.0-1.82,5eff7cd152e3fd04e8afe0dc,5c3baa275a88cc000189ef36,5f002cb40b66531226f9af58,False,0.42,,,,,,,,
,p5card,171,669241,0.0-5.0-0.83,5eff7cd152e3fd04e8afe0dc,5c3baa275a88cc000189ef36,5f002cb40b66531226f9af58,False,0.42,0.0,f,test,3623.7650000257418,f,1.0,,
,p5feedback,172,670263,0.0-5.0-1.83,5eff7cd152e3fd04e8afe0dc,5c3baa275a88cc000189ef36,5f002cb40b66531226f9af58,False,0.42,,,,,,,,
,p5card,173,674105,0.0-5.0-0.84,5eff7cd152e3fd04e8afe0dc,5c3baa275a88cc000189ef36,5f002cb40b66531226f9af58,False,0.42,1.0,j,test,1677.6299999910407,j,1.0,,
,p5feedback,174,674696,0.0-5.0-1.84,5eff7cd152e3fd04e8afe0dc,5c3baa275a88cc000189ef36,5f002cb40b66531226f9af58,False,0.42,,,,,,,,
,p5card,175,678738,0.0-5.0-0.85,5eff7cd152e3fd04e8afe0dc,5c3baa275a88cc000189ef36,5f002cb40b66531226f9af58,False,0.42,0.0,f,test,1869.539999985136,j,0.0,,
,p5feedback,176,680269,0.0-5.0-1.85,5eff7cd152e3fd04e8afe0dc,5c3baa275a88cc000189ef36,5f002cb40b66531226f9af58,False,0.42,,,,,,,,
,p5card,177,686019,0.0-5.0-0.86,5eff7cd152e3fd04e8afe0dc,5c3baa275a88cc000189ef36,5f002cb40b66531226f9af58,False,0.42,0.0,f,test,3587.295000004815,j,0.0,,
,p5feedback,178,688453,0.0-5.0-1.86,5eff7cd152e3fd04e8afe0dc,5c3baa275a88cc000189ef36,5f002cb40b66531226f9af58,False,0.42,,,,,,,,
,p5card,179,694032,0.0-5.0-0.87,5eff7cd152e3fd04e8afe0dc,5c3baa275a88cc000189ef36,5f002cb40b66531226f9af58,False,0.42,1.0,j,test,3404.3299999902956,f,0.0,,
,p5feedback,180,697204,0.0-5.0-1.87,5eff7cd152e3fd04e8afe0dc,5c3baa275a88cc000189ef36,5f002cb40b66531226f9af58,False,0.42,,,,,,,,
,p5card,181,702396,0.0-5.0-0.88,5eff7cd152e3fd04e8afe0dc,5c3baa275a88cc000189ef36,5f002cb40b66531226f9af58,False,0.42,0.0,f,test,2972.8549999999814,j,0.0,,
,p5feedback,182,703021,0.0-5.0-1.88,5eff7cd152e3fd04e8afe0dc,5c3baa275a88cc000189ef36,5f002cb40b66531226f9af58,False,0.42,,,,,,,,
,p5card,183,708694,0.0-5.0-0.89,5eff7cd152e3fd04e8afe0dc,5c3baa275a88cc000189ef36,5f002cb40b66531226f9af58,False,0.42,1.0,j,test,3511.4100000064354,j,1.0,,
,p5feedback,184,711332,0.0-5.0-1.89,5eff7cd152e3fd04e8afe0dc,5c3baa275a88cc000189ef36,5f002cb40b66531226f9af58,False,0.42,,,,,,,,
,survey-text,185,731696,0.0-6.0,5eff7cd152e3fd04e8afe0dc,5c3baa275a88cc000189ef36,5f002cb40b66531226f9af58,False,0.42,,,,,,,20351.739999983693,"{""best_guess"":"" unable to say""}"
,survey-text,186,767622,0.0-7.0,5eff7cd152e3fd04e8afe0dc,5c3baa275a88cc000189ef36,5f002cb40b66531226f9af58,False,0.42,,,,,,,35919.30000000866,"{""worker_comments"":""I tried very hard but 5 seconds was way too quick for me to process the possible patterns.""}"
,p5Text,187,775862,0.0-8.0,5eff7cd152e3fd04e8afe0dc,5c3baa275a88cc000189ef36,5f002cb40b66531226f9af58,False,0.42,,,,,,,,
1.0,fullscreen,0,3541,0.0-0.0,5eff7cd152e3fd04e8afe0dc,5e99c291db209b028f43f805,5f002ad8d4394a000a21d68c,False,0.5,,,,,,,,
,p5Text,1,8750,0.0-1.0,5eff7cd152e3fd04e8afe0dc,5e99c291db209b028f43f805,5f002ad8d4394a000a21d68c,False,0.5,,,,,,,,
,p5Text,2,15336,0.0-2.0,5eff7cd152e3fd04e8afe0dc,5e99c291db209b028f43f805,5f002ad8d4394a000a21d68c,False,0.5,,,,,,,,
,p5Text,3,32209,0.0-3.0,5eff7cd152e3fd04e8afe0dc,5e99c291db209b028f43f805,5f002ad8d4394a000a21d68c,False,0.5,,,,,,,,
,p5Text,4,38793,0.0-4.0,5eff7cd152e3fd04e8afe0dc,5e99c291db209b028f43f805,5f002ad8d4394a000a21d68c,False,0.5,,,,,,,,
,p5card,5,45472,0.0-5.0-0.0,5eff7cd152e3fd04e8afe0dc,5e99c291db209b028f43f805,5f002ad8d4394a000a21d68c,False,0.5,1.0,j,test,4565.450000111014,f,0.0,,
,p5feedback,6,47318,0.0-5.0-1.0,5eff7cd152e3fd04e8afe0dc,5e99c291db209b028f43f805,5f002ad8d4394a000a21d68c,False,0.5,,,,,,,,
,p5card,7,51625,0.0-5.0-0.1,5eff7cd152e3fd04e8afe0dc,5e99c291db209b028f43f805,5f002ad8d4394a000a21d68c,False,0.5,0.0,f,test,2182.6549998950213,j,0.0,,
,p5feedback,8,53844,0.0-5.0-1.1,5eff7cd152e3fd04e8afe0dc,5e99c291db209b028f43f805,5f002ad8d4394a000a21d68c,False,0.5,,,,,,,,
,p5card,9,58494,0.0-5.0-0.2,5eff7cd152e3fd04e8afe0dc,5e99c291db209b028f43f805,5f002ad8d4394a000a21d68c,False,0.5,0.0,f,test,2519.8649999219924,f,1.0,,
,p5feedback,10,61607,0.0-5.0-1.2,5eff7cd152e3fd04e8afe0dc,5e99c291db209b028f43f805,5f002ad8d4394a000a21d68c,False,0.5,,,,,,,,
,p5card,11,68115,0.0-5.0-0.3,5eff7cd152e3fd04e8afe0dc,5e99c291db209b028f43f805,5f002ad8d4394a000a21d68c,False,0.5,1.0,j,test,4392.630000133067,j,1.0,,
,p5feedback,12,72212,0.0-5.0-1.3,5eff7cd152e3fd04e8afe0dc,5e99c291db209b028f43f805,5f002ad8d4394a000a21d68c,False,0.5,,,,,,,,
,p5card,13,75786,0.0-5.0-0.4,5eff7cd152e3fd04e8afe0dc,5e99c291db209b028f43f805,5f002ad8d4394a000a21d68c,False,0.5,0.0,f,test,1453.8849999662489,j,0.0,,
,p5feedback,14,77738,0.0-5.0-1.4,5eff7cd152e3fd04e8afe0dc,5e99c291db209b028f43f805,5f002ad8d4394a000a21d68c,False,0.5,,,,,,,,
,p5card,15,83789,0.0-5.0-0.5,5eff7cd152e3fd04e8afe0dc,5e99c291db209b028f43f805,5f002ad8d4394a000a21d68c,False,0.5,1.0,j,test,3946.460000006482,j,1.0,,
,p5feedback,16,84826,0.0-5.0-1.5,5eff7cd152e3fd04e8afe0dc,5e99c291db209b028f43f805,5f002ad8d4394a000a21d68c,False,0.5,,,,,,,,
,p5card,17,88639,0.0-5.0-0.6,5eff7cd152e3fd04e8afe0dc,5e99c291db209b028f43f805,5f002ad8d4394a000a21d68c,False,0.5,1.0,j,test,1713.6450000107288,f,0.0,,
,p5feedback,18,90352,0.0-5.0-1.6,5eff7cd152e3fd04e8afe0dc,5e99c291db209b028f43f805,5f002ad8d4394a000a21d68c,False,0.5,,,,,,,,
,p5card,19,94058,0.0-5.0-0.7,5eff7cd152e3fd04e8afe0dc,5e99c291db209b028f43f805,5f002ad8d4394a000a21d68c,False,0.5,0.0,f,test,1502.6099998503923,j,0.0,,
,p5feedback,20,97527,0.0-5.0-1.7,5eff7cd152e3fd04e8afe0dc,5e99c291db209b028f43f805,5f002ad8d4394a000a21d68c,False,0.5,,,,,,,,
,p5card,21,101313,0.0-5.0-0.8,5eff7cd152e3fd04e8afe0dc,5e99c291db209b028f43f805,5f002ad8d4394a000a21d68c,False,0.5,0.0,f,test,1644.2700000479817,j,0.0,,
,p5feedback,22,102277,0.0-5.0-1.8,5eff7cd152e3fd04e8afe0dc,5e99c291db209b028f43f805,5f002ad8d4394a000a21d68c,False,0.5,,,,,,,,
,p5card,23,106180,0.0-5.0-0.9,5eff7cd152e3fd04e8afe0dc,5e99c291db209b028f43f805,5f002ad8d4394a000a21d68c,False,0.5,1.0,j,test,1756.614999845624,f,0.0,,
,p5feedback,24,109876,0.0-5.0-1.9,5eff7cd152e3fd04e8afe0dc,5e99c291db209b028f43f805,5f002ad8d4394a000a21d68c,False,0.5,,,,,,,,
,p5card,25,114787,0.0-5.0-0.10,5eff7cd152e3fd04e8afe0dc,5e99c291db209b028f43f805,5f002ad8d4394a000a21d68c,False,0.5,0.0,f,test,2780.0750001333654,j,0.0,,
,p5feedback,26,115925,0.0-5.0-1.10,5eff7cd152e3fd04e8afe0dc,5e99c291db209b028f43f805,5f002ad8d4394a000a21d68c,False,0.5,,,,,,,,
,p5card,27,120938,0.0-5.0-0.11,5eff7cd152e3fd04e8afe0dc,5e99c291db209b028f43f805,5f002ad8d4394a000a21d68c,False,0.5,1.0,j,test,2872.2699999343604,f,0.0,,
,p5feedback,28,122925,0.0-5.0-1.11,5eff7cd152e3fd04e8afe0dc,5e99c291db209b028f43f805,5f002ad8d4394a000a21d68c,False,0.5,,,,,,,,
,p5card,29,127622,0.0-5.0-0.12,5eff7cd152e3fd04e8afe0dc,5e99c291db209b028f43f805,5f002ad8d4394a000a21d68c,False,0.5,1.0,j,test,2613.025000086054,j,1.0,,
,p5feedback,30,130310,0.0-5.0-1.12,5eff7cd152e3fd04e8afe0dc,5e99c291db209b028f43f805,5f002ad8d4394a000a21d68c,False,0.5,,,,,,,,
,p5card,31,135478,0.0-5.0-0.13,5eff7cd152e3fd04e8afe0dc,5e99c291db209b028f43f805,5f002ad8d4394a000a21d68c,False,0.5,0.0,f,test,3050.8949998766184,f,1.0,,
,p5feedback,32,139533,0.0-5.0-1.13,5eff7cd152e3fd04e8afe0dc,5e99c291db209b028f43f805,5f002ad8d4394a000a21d68c,False,0.5,,,,,,,,
,p5card,33,142847,0.0-5.0-0.14,5eff7cd152e3fd04e8afe0dc,5e99c291db209b028f43f805,5f002ad8d4394a000a21d68c,False,0.5,0.0,f,test,1221.1599999573082,j,0.0,,
,p5feedback,34,146126,0.0-5.0-1.14,5eff7cd152e3fd04e8afe0dc,5e99c291db209b028f43f805,5f002ad8d4394a000a21d68c,False,0.5,,,,,,,,
,p5card,35,149751,0.0-5.0-0.15,5eff7cd152e3fd04e8afe0dc,5e99c291db209b028f43f805,5f002ad8d4394a000a21d68c,False,0.5,1.0,j,test,1162.5950001180172,j,1.0,,
,p5feedback,36,151986,0.0-5.0-1.15,5eff7cd152e3fd04e8afe0dc,5e99c291db209b028f43f805,5f002ad8d4394a000a21d68c,False,0.5,,,,,,,,
,p5card,37,157557,0.0-5.0-0.16,5eff7cd152e3fd04e8afe0dc,5e99c291db209b028f43f805,5f002ad8d4394a000a21d68c,False,0.5,0.0,f,test,3261.180000146851,j,0.0,,
,p5feedback,38,158494,0.0-5.0-1.16,5eff7cd152e3fd04e8afe0dc,5e99c291db209b028f43f805,5f002ad8d4394a000a21d68c,False,0.5,,,,,,,,
,p5card,39,162058,0.0-5.0-0.17,5eff7cd152e3fd04e8afe0dc,5e99c291db209b028f43f805,5f002ad8d4394a000a21d68c,False,0.5,1.0,j,test,1066.8099999893457,j,1.0,,
,p5feedback,40,162631,0.0-5.0-1.17,5eff7cd152e3fd04e8afe0dc,5e99c291db209b028f43f805,5f002ad8d4394a000a21d68c,False,0.5,,,,,,,,
,p5card,41,165941,0.0-5.0-0.18,5eff7cd152e3fd04e8afe0dc,5e99c291db209b028f43f805,5f002ad8d4394a000a21d68c,False,0.5,0.0,f,test,1201.484999852255,j,0.0,,
,p5feedback,42,166648,0.0-5.0-1.18,5eff7cd152e3fd04e8afe0dc,5e99c291db209b028f43f805,5f002ad8d4394a000a21d68c,False,0.5,,,,,,,,
,p5card,43,171711,0.0-5.0-0.19,5eff7cd152e3fd04e8afe0dc,5e99c291db209b028f43f805,5f002ad8d4394a000a21d68c,False,0.5,1.0,j,test,1080.7000000495464,j,1.0,,
,p5feedback,44,172306,0.0-5.0-1.19,5eff7cd152e3fd04e8afe0dc,5e99c291db209b028f43f805,5f002ad8d4394a000a21d68c,False,0.5,,,,,,,,
,p5card,45,175477,0.0-5.0-0.20,5eff7cd152e3fd04e8afe0dc,5e99c291db209b028f43f805,5f002ad8d4394a000a21d68c,False,0.5,0.0,f,test,1027.0249999593943,j,0.0,,
,p5feedback,46,176016,0.0-5.0-1.20,5eff7cd152e3fd04e8afe0dc,5e99c291db209b028f43f805,5f002ad8d4394a000a21d68c,False,0.5,,,,,,,,
,p5card,47,179080,0.0-5.0-0.21,5eff7cd152e3fd04e8afe0dc,5e99c291db209b028f43f805,5f002ad8d4394a000a21d68c,False,0.5,1.0,j,test,985.1249998901039,f,0.0,,
,p5feedback,48,180464,0.0-5.0-1.21,5eff7cd152e3fd04e8afe0dc,5e99c291db209b028f43f805,5f002ad8d4394a000a21d68c,False,0.5,,,,,,,,
,p5card,49,184217,0.0-5.0-0.22,5eff7cd152e3fd04e8afe0dc,5e99c291db209b028f43f805,5f002ad8d4394a000a21d68c,False,0.5,0.0,f,test,1625.9749999735504,f,1.0,,
,p5feedback,50,185072,0.0-5.0-1.22,5eff7cd152e3fd04e8afe0dc,5e99c291db209b028f43f805,5f002ad8d4394a000a21d68c,False,0.5,,,,,,,,
,p5card,51,188518,0.0-5.0-0.23,5eff7cd152e3fd04e8afe0dc,5e99c291db209b028f43f805,5f002ad8d4394a000a21d68c,False,0.5,1.0,j,test,1327.144999988377,j,1.0,,
,p5feedback,52,189252,0.0-5.0-1.23,5eff7cd152e3fd04e8afe0dc,5e99c291db209b028f43f805,5f002ad8d4394a000a21d68c,False,0.5,,,,,,,,
,p5card,53,193903,0.0-5.0-0.24,5eff7cd152e3fd04e8afe0dc,5e99c291db209b028f43f805,5f002ad8d4394a000a21d68c,False,0.5,1.0,j,test,2541.3349999580532,f,0.0,,
,p5feedback,54,194521,0.0-5.0-1.24,5eff7cd152e3fd04e8afe0dc,5e99c291db209b028f43f805,5f002ad8d4394a000a21d68c,False,0.5,,,,,,,,
,p5card,55,199558,0.0-5.0-0.25,5eff7cd152e3fd04e8afe0dc,5e99c291db209b028f43f805,5f002ad8d4394a000a21d68c,False,0.5,0.0,f,test,2924.335000105202,j,0.0,,
,p5feedback,56,200201,0.0-5.0-1.25,5eff7cd152e3fd04e8afe0dc,5e99c291db209b028f43f805,5f002ad8d4394a000a21d68c,False,0.5,,,,,,,,
,p5card,57,204825,0.0-5.0-0.26,5eff7cd152e3fd04e8afe0dc,5e99c291db209b028f43f805,5f002ad8d4394a000a21d68c,False,0.5,1.0,j,test,2464.8899999447167,f,0.0,,
,p5feedback,58,205635,0.0-5.0-1.26,5eff7cd152e3fd04e8afe0dc,5e99c291db209b028f43f805,5f002ad8d4394a000a21d68c,False,0.5,,,,,,,,
,p5card,59,208512,0.0-5.0-0.27,5eff7cd152e3fd04e8afe0dc,5e99c291db209b028f43f805,5f002ad8d4394a000a21d68c,False,0.5,0.0,f,test,740.7949999906123,j,0.0,,
,p5feedback,60,209954,0.0-5.0-1.27,5eff7cd152e3fd04e8afe0dc,5e99c291db209b028f43f805,5f002ad8d4394a000a21d68c,False,0.5,,,,,,,,
,p5card,61,212579,0.0-5.0-0.28,5eff7cd152e3fd04e8afe0dc,5e99c291db209b028f43f805,5f002ad8d4394a000a21d68c,False,0.5,1.0,j,test,473.0799999088049,j,1.0,,
,p5feedback,62,213493,0.0-5.0-1.28,5eff7cd152e3fd04e8afe0dc,5e99c291db209b028f43f805,5f002ad8d4394a000a21d68c,False,0.5,,,,,,,,
,p5card,63,217449,0.0-5.0-0.29,5eff7cd152e3fd04e8afe0dc,5e99c291db209b028f43f805,5f002ad8d4394a000a21d68c,False,0.5,0.0,f,test,1843.180000083521,f,1.0,,
,p5feedback,64,218135,0.0-5.0-1.29,5eff7cd152e3fd04e8afe0dc,5e99c291db209b028f43f805,5f002ad8d4394a000a21d68c,False,0.5,,,,,,,,
,p5card,65,221198,0.0-5.0-0.30,5eff7cd152e3fd04e8afe0dc,5e99c291db209b028f43f805,5f002ad8d4394a000a21d68c,False,0.5,1.0,j,test,927.8599999379367,j,1.0,,
,p5feedback,66,221314,0.0-5.0-1.30,5eff7cd152e3fd04e8afe0dc,5e99c291db209b028f43f805,5f002ad8d4394a000a21d68c,False,0.5,,,,,,,,
,p5card,67,224502,0.0-5.0-0.31,5eff7cd152e3fd04e8afe0dc,5e99c291db209b028f43f805,5f002ad8d4394a000a21d68c,False,0.5,0.0,f,test,1082.135000033304,f,1.0,,
,p5feedback,68,225347,0.0-5.0-1.31,5eff7cd152e3fd04e8afe0dc,5e99c291db209b028f43f805,5f002ad8d4394a000a21d68c,False,0.5,,,,,,,,
,p5card,69,228453,0.0-5.0-0.32,5eff7cd152e3fd04e8afe0dc,5e99c291db209b028f43f805,5f002ad8d4394a000a21d68c,False,0.5,0.0,f,test,981.4300001598895,j,0.0,,
,p5feedback,70,229068,0.0-5.0-1.32,5eff7cd152e3fd04e8afe0dc,5e99c291db209b028f43f805,5f002ad8d4394a000a21d68c,False,0.5,,,,,,,,
,p5card,71,232789,0.0-5.0-0.33,5eff7cd152e3fd04e8afe0dc,5e99c291db209b028f43f805,5f002ad8d4394a000a21d68c,False,0.5,1.0,j,test,1566.5550001431257,j,1.0,,
,p5feedback,72,233400,0.0-5.0-1.33,5eff7cd152e3fd04e8afe0dc,5e99c291db209b028f43f805,5f002ad8d4394a000a21d68c,False,0.5,,,,,,,,
,p5card,73,237189,0.0-5.0-0.34,5eff7cd152e3fd04e8afe0dc,5e99c291db209b028f43f805,5f002ad8d4394a000a21d68c,False,0.5,1.0,j,test,1680.384999839589,j,1.0,,
,p5feedback,74,237924,0.0-5.0-1.34,5eff7cd152e3fd04e8afe0dc,5e99c291db209b028f43f805,5f002ad8d4394a000a21d68c,False,0.5,,,,,,,,
,p5card,75,241025,0.0-5.0-0.35,5eff7cd152e3fd04e8afe0dc,5e99c291db209b028f43f805,5f002ad8d4394a000a21d68c,False,0.5,0.0,f,test,986.7599999997765,f,1.0,,
,p5feedback,76,241819,0.0-5.0-1.35,5eff7cd152e3fd04e8afe0dc,5e99c291db209b028f43f805,5f002ad8d4394a000a21d68c,False,0.5,,,,,,,,
,p5card,77,244495,0.0-5.0-0.36,5eff7cd152e3fd04e8afe0dc,5e99c291db209b028f43f805,5f002ad8d4394a000a21d68c,False,0.5,1.0,j,test,566.1550001241267,j,1.0,,
,p5feedback,78,244922,0.0-5.0-1.36,5eff7cd152e3fd04e8afe0dc,5e99c291db209b028f43f805,5f002ad8d4394a000a21d68c,False,0.5,,,,,,,,
,p5card,79,248095,0.0-5.0-0.37,5eff7cd152e3fd04e8afe0dc,5e99c291db209b028f43f805,5f002ad8d4394a000a21d68c,False,0.5,0.0,f,test,1030.2850001025945,f,1.0,,
,p5feedback,80,248622,0.0-5.0-1.37,5eff7cd152e3fd04e8afe0dc,5e99c291db209b028f43f805,5f002ad8d4394a000a21d68c,False,0.5,,,,,,,,
,p5card,81,251396,0.0-5.0-0.38,5eff7cd152e3fd04e8afe0dc,5e99c291db209b028f43f805,5f002ad8d4394a000a21d68c,False,0.5,1.0,j,test,645.5200000200421,j,1.0,,
,p5feedback,82,251842,0.0-5.0-1.38,5eff7cd152e3fd04e8afe0dc,5e99c291db209b028f43f805,5f002ad8d4394a000a21d68c,False,0.5,,,,,,,,
,p5card,83,254949,0.0-5.0-0.39,5eff7cd152e3fd04e8afe0dc,5e99c291db209b028f43f805,5f002ad8d4394a000a21d68c,False,0.5,0.0,f,test,976.3099998235703,f,1.0,,
,p5feedback,84,255565,0.0-5.0-1.39,5eff7cd152e3fd04e8afe0dc,5e99c291db209b028f43f805,5f002ad8d4394a000a21d68c,False,0.5,,,,,,,,
,p5card,85,258583,0.0-5.0-0.40,5eff7cd152e3fd04e8afe0dc,5e99c291db209b028f43f805,5f002ad8d4394a000a21d68c,False,0.5,1.0,j,test,882.0599999744445,j,1.0,,
,p5feedback,86,258963,0.0-5.0-1.40,5eff7cd152e3fd04e8afe0dc,5e99c291db209b028f43f805,5f002ad8d4394a000a21d68c,False,0.5,,,,,,,,
,p5card,87,261636,0.0-5.0-0.41,5eff7cd152e3fd04e8afe0dc,5e99c291db209b028f43f805,5f002ad8d4394a000a21d68c,False,0.5,0.0,f,test,548.9949998445809,f,1.0,,
,p5feedback,88,262089,0.0-5.0-1.41,5eff7cd152e3fd04e8afe0dc,5e99c291db209b028f43f805,5f002ad8d4394a000a21d68c,False,0.5,,,,,,,,
,p5card,89,264788,0.0-5.0-0.42,5eff7cd152e3fd04e8afe0dc,5e99c291db209b028f43f805,5f002ad8d4394a000a21d68c,False,0.5,1.0,j,test,578.9199999999255,j,1.0,,
,p5feedback,90,265109,0.0-5.0-1.42,5eff7cd152e3fd04e8afe0dc,5e99c291db209b028f43f805,5f002ad8d4394a000a21d68c,False,0.5,,,,,,,,
,p5card,91,267738,0.0-5.0-0.43,5eff7cd152e3fd04e8afe0dc,5e99c291db209b028f43f805,5f002ad8d4394a000a21d68c,False,0.5,0.0,f,test,490.08999997749925,f,1.0,,
,p5feedback,92,268442,0.0-5.0-1.43,5eff7cd152e3fd04e8afe0dc,5e99c291db209b028f43f805,5f002ad8d4394a000a21d68c,False,0.5,,,,,,,,
,p5card,93,271039,0.0-5.0-0.44,5eff7cd152e3fd04e8afe0dc,5e99c291db209b028f43f805,5f002ad8d4394a000a21d68c,False,0.5,1.0,j,test,471.91999992355704,j,1.0,,
,p5feedback,94,271532,0.0-5.0-1.44,5eff7cd152e3fd04e8afe0dc,5e99c291db209b028f43f805,5f002ad8d4394a000a21d68c,False,0.5,,,,,,,,
,p5card,95,274158,0.0-5.0-0.45,5eff7cd152e3fd04e8afe0dc,5e99c291db209b028f43f805,5f002ad8d4394a000a21d68c,False,0.5,0.0,f,test,509.89000010304153,f,1.0,,
,p5feedback,96,274834,0.0-5.0-1.45,5eff7cd152e3fd04e8afe0dc,5e99c291db209b028f43f805,5f002ad8d4394a000a21d68c,False,0.5,,,,,,,,
,p5card,97,277475,0.0-5.0-0.46,5eff7cd152e3fd04e8afe0dc,5e99c291db209b028f43f805,5f002ad8d4394a000a21d68c,False,0.5,0.0,f,test,419.67999981716275,j,0.0,,
,p5feedback,98,280835,0.0-5.0-1.46,5eff7cd152e3fd04e8afe0dc,5e99c291db209b028f43f805,5f002ad8d4394a000a21d68c,False,0.5,,,,,,,,
,p5card,99,283361,0.0-5.0-0.47,5eff7cd152e3fd04e8afe0dc,5e99c291db209b028f43f805,5f002ad8d4394a000a21d68c,False,0.5,1.0,j,test,423.9199999719858,j,1.0,,
,p5feedback,100,283936,0.0-5.0-1.47,5eff7cd152e3fd04e8afe0dc,5e99c291db209b028f43f805,5f002ad8d4394a000a21d68c,False,0.5,,,,,,,,
,p5card,101,286545,0.0-5.0-0.48,5eff7cd152e3fd04e8afe0dc,5e99c291db209b028f43f805,5f002ad8d4394a000a21d68c,False,0.5,0.0,f,test,504.24999999813735,f,1.0,,
,p5feedback,102,287094,0.0-5.0-1.48,5eff7cd152e3fd04e8afe0dc,5e99c291db209b028f43f805,5f002ad8d4394a000a21d68c,False,0.5,,,,,,,,
,p5card,103,289664,0.0-5.0-0.49,5eff7cd152e3fd04e8afe0dc,5e99c291db209b028f43f805,5f002ad8d4394a000a21d68c,False,0.5,1.0,j,test,468.5750000644475,j,1.0,,
,p5feedback,104,289892,0.0-5.0-1.49,5eff7cd152e3fd04e8afe0dc,5e99c291db209b028f43f805,5f002ad8d4394a000a21d68c,False,0.5,,,,,,,,
,p5card,105,292466,0.0-5.0-0.50,5eff7cd152e3fd04e8afe0dc,5e99c291db209b028f43f805,5f002ad8d4394a000a21d68c,False,0.5,1.0,j,test,437.09000013768673,f,0.0,,
,p5feedback,106,295212,0.0-5.0-1.50,5eff7cd152e3fd04e8afe0dc,5e99c291db209b028f43f805,5f002ad8d4394a000a21d68c,False,0.5,,,,,,,,
,p5card,107,297834,0.0-5.0-0.51,5eff7cd152e3fd04e8afe0dc,5e99c291db209b028f43f805,5f002ad8d4394a000a21d68c,False,0.5,0.0,f,test,500.01000007614493,j,0.0,,
,p5feedback,108,299525,0.0-5.0-1.51,5eff7cd152e3fd04e8afe0dc,5e99c291db209b028f43f805,5f002ad8d4394a000a21d68c,False,0.5,,,,,,,,
,p5card,109,302037,0.0-5.0-0.52,5eff7cd152e3fd04e8afe0dc,5e99c291db209b028f43f805,5f002ad8d4394a000a21d68c,False,0.5,0.0,f,test,389.6449999883771,j,0.0,,
,p5feedback,110,302514,0.0-5.0-1.52,5eff7cd152e3fd04e8afe0dc,5e99c291db209b028f43f805,5f002ad8d4394a000a21d68c,False,0.5,,,,,,,,
,p5card,111,306839,0.0-5.0-0.53,5eff7cd152e3fd04e8afe0dc,5e99c291db209b028f43f805,5f002ad8d4394a000a21d68c,False,0.5,1.0,j,test,2179.939999943599,j,1.0,,
,p5feedback,112,307429,0.0-5.0-1.53,5eff7cd152e3fd04e8afe0dc,5e99c291db209b028f43f805,5f002ad8d4394a000a21d68c,False,0.5,,,,,,,,
,p5card,113,310007,0.0-5.0-0.54,5eff7cd152e3fd04e8afe0dc,5e99c291db209b028f43f805,5f002ad8d4394a000a21d68c,False,0.5,1.0,j,test,469.40500009804964,f,0.0,,
,p5feedback,114,311013,0.0-5.0-1.54,5eff7cd152e3fd04e8afe0dc,5e99c291db209b028f43f805,5f002ad8d4394a000a21d68c,False,0.5,,,,,,,,
,p5card,115,313607,0.0-5.0-0.55,5eff7cd152e3fd04e8afe0dc,5e99c291db209b028f43f805,5f002ad8d4394a000a21d68c,False,0.5,0.0,f,test,450.6800000090152,j,0.0,,
,p5feedback,116,314264,0.0-5.0-1.55,5eff7cd152e3fd04e8afe0dc,5e99c291db209b028f43f805,5f002ad8d4394a000a21d68c,False,0.5,,,,,,,,
,p5card,117,317876,0.0-5.0-0.56,5eff7cd152e3fd04e8afe0dc,5e99c291db209b028f43f805,5f002ad8d4394a000a21d68c,False,0.5,1.0,j,test,1278.6149999592453,f,0.0,,
,p5feedback,118,318383,0.0-5.0-1.56,5eff7cd152e3fd04e8afe0dc,5e99c291db209b028f43f805,5f002ad8d4394a000a21d68c,False,0.5,,,,,,,,
,p5card,119,322445,0.0-5.0-0.57,5eff7cd152e3fd04e8afe0dc,5e99c291db209b028f43f805,5f002ad8d4394a000a21d68c,False,0.5,0.0,f,test,1918.3000000193715,j,0.0,,
,p5feedback,120,325385,0.0-5.0-1.57,5eff7cd152e3fd04e8afe0dc,5e99c291db209b028f43f805,5f002ad8d4394a000a21d68c,False,0.5,,,,,,,,
,p5card,121,328365,0.0-5.0-0.58,5eff7cd152e3fd04e8afe0dc,5e99c291db209b028f43f805,5f002ad8d4394a000a21d68c,False,0.5,1.0,j,test,877.6050000451505,j,1.0,,
,p5feedback,122,328868,0.0-5.0-1.58,5eff7cd152e3fd04e8afe0dc,5e99c291db209b028f43f805,5f002ad8d4394a000a21d68c,False,0.5,,,,,,,,
,p5card,123,334501,0.0-5.0-0.59,5eff7cd152e3fd04e8afe0dc,5e99c291db209b028f43f805,5f002ad8d4394a000a21d68c,False,0.5,0.0,f,test,3512.170000001788,f,1.0,,
,p5feedback,124,337424,0.0-5.0-1.59,5eff7cd152e3fd04e8afe0dc,5e99c291db209b028f43f805,5f002ad8d4394a000a21d68c,False,0.5,,,,,,,,
,p5card,125,340854,0.0-5.0-0.60,5eff7cd152e3fd04e8afe0dc,5e99c291db209b028f43f805,5f002ad8d4394a000a21d68c,False,0.5,0.0,f,test,1297.9449999984354,j,0.0,,
,p5feedback,126,341365,0.0-5.0-1.60,5eff7cd152e3fd04e8afe0dc,5e99c291db209b028f43f805,5f002ad8d4394a000a21d68c,False,0.5,,,,,,,,
,p5card,127,345374,0.0-5.0-0.61,5eff7cd152e3fd04e8afe0dc,5e99c291db209b028f43f805,5f002ad8d4394a000a21d68c,False,0.5,1.0,j,test,1875.694999936968,j,1.0,,
,p5feedback,128,345902,0.0-5.0-1.61,5eff7cd152e3fd04e8afe0dc,5e99c291db209b028f43f805,5f002ad8d4394a000a21d68c,False,0.5,,,,,,,,
,p5card,129,349908,0.0-5.0-0.62,5eff7cd152e3fd04e8afe0dc,5e99c291db209b028f43f805,5f002ad8d4394a000a21d68c,False,0.5,1.0,j,test,1902.2349999286234,j,1.0,,
,p5feedback,130,350671,0.0-5.0-1.62,5eff7cd152e3fd04e8afe0dc,5e99c291db209b028f43f805,5f002ad8d4394a000a21d68c,False,0.5,,,,,,,,
,p5card,131,353993,0.0-5.0-0.63,5eff7cd152e3fd04e8afe0dc,5e99c291db209b028f43f805,5f002ad8d4394a000a21d68c,False,0.5,0.0,f,test,1143.5150001198053,f,1.0,,
,p5feedback,132,356338,0.0-5.0-1.63,5eff7cd152e3fd04e8afe0dc,5e99c291db209b028f43f805,5f002ad8d4394a000a21d68c,False,0.5,,,,,,,,
,p5card,133,360829,0.0-5.0-0.64,5eff7cd152e3fd04e8afe0dc,5e99c291db209b028f43f805,5f002ad8d4394a000a21d68c,False,0.5,1.0,j,test,2330.379999941215,f,0.0,,
,p5feedback,134,361384,0.0-5.0-1.64,5eff7cd152e3fd04e8afe0dc,5e99c291db209b028f43f805,5f002ad8d4394a000a21d68c,False,0.5,,,,,,,,
,p5card,135,363964,0.0-5.0-0.65,5eff7cd152e3fd04e8afe0dc,5e99c291db209b028f43f805,5f002ad8d4394a000a21d68c,False,0.5,0.0,f,test,486.4099998958409,j,0.0,,
,p5feedback,136,367136,0.0-5.0-1.65,5eff7cd152e3fd04e8afe0dc,5e99c291db209b028f43f805,5f002ad8d4394a000a21d68c,False,0.5,,,,,,,,
,p5card,137,370166,0.0-5.0-0.66,5eff7cd152e3fd04e8afe0dc,5e99c291db209b028f43f805,5f002ad8d4394a000a21d68c,False,0.5,0.0,f,test,929.2049999348819,j,0.0,,
,p5feedback,138,370886,0.0-5.0-1.66,5eff7cd152e3fd04e8afe0dc,5e99c291db209b028f43f805,5f002ad8d4394a000a21d68c,False,0.5,,,,,,,,
,p5card,139,373534,0.0-5.0-0.67,5eff7cd152e3fd04e8afe0dc,5e99c291db209b028f43f805,5f002ad8d4394a000a21d68c,False,0.5,1.0,j,test,524.195000063628,j,1.0,,
,p5feedback,140,374093,0.0-5.0-1.67,5eff7cd152e3fd04e8afe0dc,5e99c291db209b028f43f805,5f002ad8d4394a000a21d68c,False,0.5,,,,,,,,
,p5card,141,377086,0.0-5.0-0.68,5eff7cd152e3fd04e8afe0dc,5e99c291db209b028f43f805,5f002ad8d4394a000a21d68c,False,0.5,1.0,j,test,863.1450000684708,j,1.0,,
,p5feedback,142,377632,0.0-5.0-1.68,5eff7cd152e3fd04e8afe0dc,5e99c291db209b028f43f805,5f002ad8d4394a000a21d68c,False,0.5,,,,,,,,
,p5card,143,381155,0.0-5.0-0.69,5eff7cd152e3fd04e8afe0dc,5e99c291db209b028f43f805,5f002ad8d4394a000a21d68c,False,0.5,0.0,f,test,1403.2300000544637,j,0.0,,
,p5feedback,144,383777,0.0-5.0-1.69,5eff7cd152e3fd04e8afe0dc,5e99c291db209b028f43f805,5f002ad8d4394a000a21d68c,False,0.5,,,,,,,,
,p5card,145,387090,0.0-5.0-0.70,5eff7cd152e3fd04e8afe0dc,5e99c291db209b028f43f805,5f002ad8d4394a000a21d68c,False,0.5,1.0,j,test,1222.340000094846,f,0.0,,
,p5feedback,146,388029,0.0-5.0-1.70,5eff7cd152e3fd04e8afe0dc,5e99c291db209b028f43f805,5f002ad8d4394a000a21d68c,False,0.5,,,,,,,,
,p5card,147,391157,0.0-5.0-0.71,5eff7cd152e3fd04e8afe0dc,5e99c291db209b028f43f805,5f002ad8d4394a000a21d68c,False,0.5,0.0,f,test,1034.239999949932,j,0.0,,
,p5feedback,148,393683,0.0-5.0-1.71,5eff7cd152e3fd04e8afe0dc,5e99c291db209b028f43f805,5f002ad8d4394a000a21d68c,False,0.5,,,,,,,,
,p5card,149,396694,0.0-5.0-0.72,5eff7cd152e3fd04e8afe0dc,5e99c291db209b028f43f805,5f002ad8d4394a000a21d68c,False,0.5,1.0,j,test,896.8299999833107,j,1.0,,
,p5feedback,150,398886,0.0-5.0-1.72,5eff7cd152e3fd04e8afe0dc,5e99c291db209b028f43f805,5f002ad8d4394a000a21d68c,False,0.5,,,,,,,,
,p5card,151,403498,0.0-5.0-0.73,5eff7cd152e3fd04e8afe0dc,5e99c291db209b028f43f805,5f002ad8d4394a000a21d68c,False,0.5,0.0,f,test,2480.2099999506027,j,0.0,,
,p5feedback,152,404195,0.0-5.0-1.73,5eff7cd152e3fd04e8afe0dc,5e99c291db209b028f43f805,5f002ad8d4394a000a21d68c,False,0.5,,,,,,,,
,p5card,153,406933,0.0-5.0-0.74,5eff7cd152e3fd04e8afe0dc,5e99c291db209b028f43f805,5f002ad8d4394a000a21d68c,False,0.5,1.0,j,test,639.384999871254,j,1.0,,
,p5feedback,154,407350,0.0-5.0-1.74,5eff7cd152e3fd04e8afe0dc,5e99c291db209b028f43f805,5f002ad8d4394a000a21d68c,False,0.5,,,,,,,,
,p5card,155,410383,0.0-5.0-0.75,5eff7cd152e3fd04e8afe0dc,5e99c291db209b028f43f805,5f002ad8d4394a000a21d68c,False,0.5,0.0,f,test,883.7599998805672,f,1.0,,
,p5feedback,156,410997,0.0-5.0-1.75,5eff7cd152e3fd04e8afe0dc,5e99c291db209b028f43f805,5f002ad8d4394a000a21d68c,False,0.5,,,,,,,,
,p5card,157,414053,0.0-5.0-0.76,5eff7cd152e3fd04e8afe0dc,5e99c291db209b028f43f805,5f002ad8d4394a000a21d68c,False,0.5,1.0,j,test,950.6050001364201,j,1.0,,
,p5feedback,158,414544,0.0-5.0-1.76,5eff7cd152e3fd04e8afe0dc,5e99c291db209b028f43f805,5f002ad8d4394a000a21d68c,False,0.5,,,,,,,,
,p5card,159,418421,0.0-5.0-0.77,5eff7cd152e3fd04e8afe0dc,5e99c291db209b028f43f805,5f002ad8d4394a000a21d68c,False,0.5,0.0,f,test,1691.4349999278784,j,0.0,,
,p5feedback,160,419075,0.0-5.0-1.77,5eff7cd152e3fd04e8afe0dc,5e99c291db209b028f43f805,5f002ad8d4394a000a21d68c,False,0.5,,,,,,,,
,p5card,161,422372,0.0-5.0-0.78,5eff7cd152e3fd04e8afe0dc,5e99c291db209b028f43f805,5f002ad8d4394a000a21d68c,False,0.5,0.0,f,test,1205.8249998372048,j,0.0,,
,p5feedback,162,423345,0.0-5.0-1.78,5eff7cd152e3fd04e8afe0dc,5e99c291db209b028f43f805,5f002ad8d4394a000a21d68c,False,0.5,,,,,,,,
,p5card,163,426307,0.0-5.0-0.79,5eff7cd152e3fd04e8afe0dc,5e99c291db209b028f43f805,5f002ad8d4394a000a21d68c,False,0.5,1.0,j,test,857.9250001348555,j,1.0,,
,p5feedback,164,426850,0.0-5.0-1.79,5eff7cd152e3fd04e8afe0dc,5e99c291db209b028f43f805,5f002ad8d4394a000a21d68c,False,0.5,,,,,,,,
,p5card,165,429876,0.0-5.0-0.80,5eff7cd152e3fd04e8afe0dc,5e99c291db209b028f43f805,5f002ad8d4394a000a21d68c,False,0.5,0.0,f,test,924.8899999074638,j,0.0,,
,p5feedback,166,430564,0.0-5.0-1.80,5eff7cd152e3fd04e8afe0dc,5e99c291db209b028f43f805,5f002ad8d4394a000a21d68c,False,0.5,,,,,,,,
,p5card,167,433095,0.0-5.0-0.81,5eff7cd152e3fd04e8afe0dc,5e99c291db209b028f43f805,5f002ad8d4394a000a21d68c,False,0.5,1.0,j,test,430.20499986596406,j,1.0,,
,p5feedback,168,435398,0.0-5.0-1.81,5eff7cd152e3fd04e8afe0dc,5e99c291db209b028f43f805,5f002ad8d4394a000a21d68c,False,0.5,,,,,,,,
,p5card,169,438565,0.0-5.0-0.82,5eff7cd152e3fd04e8afe0dc,5e99c291db209b028f43f805,5f002ad8d4394a000a21d68c,False,0.5,1.0,j,test,1077.4749999400228,j,1.0,,
,p5feedback,170,441677,0.0-5.0-1.82,5eff7cd152e3fd04e8afe0dc,5e99c291db209b028f43f805,5f002ad8d4394a000a21d68c,False,0.5,,,,,,,,
,p5card,171,444749,0.0-5.0-0.83,5eff7cd152e3fd04e8afe0dc,5e99c291db209b028f43f805,5f002ad8d4394a000a21d68c,False,0.5,0.0,f,test,967.0199998654425,f,1.0,,
,p5feedback,172,445506,0.0-5.0-1.83,5eff7cd152e3fd04e8afe0dc,5e99c291db209b028f43f805,5f002ad8d4394a000a21d68c,False,0.5,,,,,,,,
,p5card,173,449085,0.0-5.0-0.84,5eff7cd152e3fd04e8afe0dc,5e99c291db209b028f43f805,5f002ad8d4394a000a21d68c,False,0.5,0.0,f,test,1485.7399999164045,j,0.0,,
,p5feedback,174,449630,0.0-5.0-1.84,5eff7cd152e3fd04e8afe0dc,5e99c291db209b028f43f805,5f002ad8d4394a000a21d68c,False,0.5,,,,,,,,
,p5card,175,452621,0.0-5.0-0.85,5eff7cd152e3fd04e8afe0dc,5e99c291db209b028f43f805,5f002ad8d4394a000a21d68c,False,0.5,1.0,j,test,893.3250000700355,j,1.0,,
,p5feedback,176,453128,0.0-5.0-1.85,5eff7cd152e3fd04e8afe0dc,5e99c291db209b028f43f805,5f002ad8d4394a000a21d68c,False,0.5,,,,,,,,
,p5card,177,456688,0.0-5.0-0.86,5eff7cd152e3fd04e8afe0dc,5e99c291db209b028f43f805,5f002ad8d4394a000a21d68c,False,0.5,0.0,f,test,1460.1700000930578,f,1.0,,
,p5feedback,178,457201,0.0-5.0-1.86,5eff7cd152e3fd04e8afe0dc,5e99c291db209b028f43f805,5f002ad8d4394a000a21d68c,False,0.5,,,,,,,,
,p5card,179,460859,0.0-5.0-0.87,5eff7cd152e3fd04e8afe0dc,5e99c291db209b028f43f805,5f002ad8d4394a000a21d68c,False,0.5,1.0,j,test,1438.8099999632686,f,0.0,,
,p5feedback,180,462328,0.0-5.0-1.87,5eff7cd152e3fd04e8afe0dc,5e99c291db209b028f43f805,5f002ad8d4394a000a21d68c,False,0.5,,,,,,,,
,p5card,181,465227,0.0-5.0-0.88,5eff7cd152e3fd04e8afe0dc,5e99c291db209b028f43f805,5f002ad8d4394a000a21d68c,False,0.5,1.0,j,test,765.3699999209493,j,1.0,,
,p5feedback,182,466002,0.0-5.0-1.88,5eff7cd152e3fd04e8afe0dc,5e99c291db209b028f43f805,5f002ad8d4394a000a21d68c,False,0.5,,,,,,,,
,p5card,183,469477,0.0-5.0-0.89,5eff7cd152e3fd04e8afe0dc,5e99c291db209b028f43f805,5f002ad8d4394a000a21d68c,False,0.5,0.0,f,test,1323.2849999330938,f,1.0,,
,p5feedback,184,470205,0.0-5.0-1.89,5eff7cd152e3fd04e8afe0dc,5e99c291db209b028f43f805,5f002ad8d4394a000a21d68c,False,0.5,,,,,,,,
,survey-text,185,491389,0.0-6.0,5eff7cd152e3fd04e8afe0dc,5e99c291db209b028f43f805,5f002ad8d4394a000a21d68c,False,0.5,,,,,,,21034.65999988839,"{""best_guess"":"" relation of ship to train""}"
,survey-text,186,495577,0.0-7.0,5eff7cd152e3fd04e8afe0dc,5e99c291db209b028f43f805,5f002ad8d4394a000a21d68c,False,0.5,,,,,,,4180.649999994785,"{""worker_comments"":""""}"
,p5Text,187,502032,0.0-8.0,5eff7cd152e3fd04e8afe0dc,5e99c291db209b028f43f805,5f002ad8d4394a000a21d68c,False,0.5,,,,,,,,
1.0,fullscreen,0,3278,0.0-0.0,5eff7cd152e3fd04e8afe0dc,5e8cd13540d8520846c8bc25,5f002ad1099f49124b653135,False,0.53,,,,,,,,
,p5Text,1,9290,0.0-1.0,5eff7cd152e3fd04e8afe0dc,5e8cd13540d8520846c8bc25,5f002ad1099f49124b653135,False,0.53,,,,,,,,
,p5Text,2,17766,0.0-2.0,5eff7cd152e3fd04e8afe0dc,5e8cd13540d8520846c8bc25,5f002ad1099f49124b653135,False,0.53,,,,,,,,
,p5Text,3,33285,0.0-3.0,5eff7cd152e3fd04e8afe0dc,5e8cd13540d8520846c8bc25,5f002ad1099f49124b653135,False,0.53,,,,,,,,
,p5Text,4,48856,0.0-4.0,5eff7cd152e3fd04e8afe0dc,5e8cd13540d8520846c8bc25,5f002ad1099f49124b653135,False,0.53,,,,,,,,
,p5card,5,53283,0.0-5.0-0.0,5eff7cd152e3fd04e8afe0dc,5e8cd13540d8520846c8bc25,5f002ad1099f49124b653135,False,0.53,1.0,j,test,2130.3850000258535,j,1.0,,
,p5feedback,6,55697,0.0-5.0-1.0,5eff7cd152e3fd04e8afe0dc,5e8cd13540d8520846c8bc25,5f002ad1099f49124b653135,False,0.53,,,,,,,,
,p5card,7,59499,0.0-5.0-0.1,5eff7cd152e3fd04e8afe0dc,5e8cd13540d8520846c8bc25,5f002ad1099f49124b653135,False,0.53,0.0,f,test,1530.9899998828769,j,0.0,,
,p5feedback,8,61061,0.0-5.0-1.1,5eff7cd152e3fd04e8afe0dc,5e8cd13540d8520846c8bc25,5f002ad1099f49124b653135,False,0.53,,,,,,,,
,p5card,9,65084,0.0-5.0-0.2,5eff7cd152e3fd04e8afe0dc,5e8cd13540d8520846c8bc25,5f002ad1099f49124b653135,False,0.53,0.0,f,test,1663.6249998118728,f,1.0,,
,p5feedback,10,67495,0.0-5.0-1.2,5eff7cd152e3fd04e8afe0dc,5e8cd13540d8520846c8bc25,5f002ad1099f49124b653135,False,0.53,,,,,,,,
,p5card,11,70368,0.0-5.0-0.3,5eff7cd152e3fd04e8afe0dc,5e8cd13540d8520846c8bc25,5f002ad1099f49124b653135,False,0.53,1.0,j,test,629.4050000142306,j,1.0,,
,p5feedback,12,74412,0.0-5.0-1.3,5eff7cd152e3fd04e8afe0dc,5e8cd13540d8520846c8bc25,5f002ad1099f49124b653135,False,0.53,,,,,,,,
,p5card,13,77419,0.0-5.0-0.4,5eff7cd152e3fd04e8afe0dc,5e8cd13540d8520846c8bc25,5f002ad1099f49124b653135,False,0.53,1.0,j,test,697.2099998965859,f,0.0,,
,p5feedback,14,81380,0.0-5.0-1.4,5eff7cd152e3fd04e8afe0dc,5e8cd13540d8520846c8bc25,5f002ad1099f49124b653135,False,0.53,,,,,,,,
,p5card,15,85871,0.0-5.0-0.5,5eff7cd152e3fd04e8afe0dc,5e8cd13540d8520846c8bc25,5f002ad1099f49124b653135,False,0.53,0.0,f,test,2191.0249998327345,j,0.0,,
,p5feedback,16,87439,0.0-5.0-1.5,5eff7cd152e3fd04e8afe0dc,5e8cd13540d8520846c8bc25,5f002ad1099f49124b653135,False,0.53,,,,,,,,
,p5card,17,92056,0.0-5.0-0.6,5eff7cd152e3fd04e8afe0dc,5e8cd13540d8520846c8bc25,5f002ad1099f49124b653135,False,0.53,1.0,j,test,2333.684999961406,f,0.0,,
,p5feedback,18,93158,0.0-5.0-1.6,5eff7cd152e3fd04e8afe0dc,5e8cd13540d8520846c8bc25,5f002ad1099f49124b653135,False,0.53,,,,,,,,
,p5card,19,98388,0.0-5.0-0.7,5eff7cd152e3fd04e8afe0dc,5e8cd13540d8520846c8bc25,5f002ad1099f49124b653135,False,0.53,0.0,f,test,2807.879999978468,f,1.0,,
,p5feedback,20,99139,0.0-5.0-1.7,5eff7cd152e3fd04e8afe0dc,5e8cd13540d8520846c8bc25,5f002ad1099f49124b653135,False,0.53,,,,,,,,
,p5card,21,102432,0.0-5.0-0.8,5eff7cd152e3fd04e8afe0dc,5e8cd13540d8520846c8bc25,5f002ad1099f49124b653135,False,0.53,0.0,f,test,816.1849998869002,f,1.0,,
,p5feedback,22,105935,0.0-5.0-1.8,5eff7cd152e3fd04e8afe0dc,5e8cd13540d8520846c8bc25,5f002ad1099f49124b653135,False,0.53,,,,,,,,
,p5card,23,108956,0.0-5.0-0.9,5eff7cd152e3fd04e8afe0dc,5e8cd13540d8520846c8bc25,5f002ad1099f49124b653135,False,0.53,1.0,j,test,535.0099999923259,j,1.0,,
,p5feedback,24,111074,0.0-5.0-1.9,5eff7cd152e3fd04e8afe0dc,5e8cd13540d8520846c8bc25,5f002ad1099f49124b653135,False,0.53,,,,,,,,
,p5card,25,115056,0.0-5.0-0.10,5eff7cd152e3fd04e8afe0dc,5e8cd13540d8520846c8bc25,5f002ad1099f49124b653135,False,0.53,0.0,f,test,1646.500000031665,j,0.0,,
,p5feedback,26,116434,0.0-5.0-1.10,5eff7cd152e3fd04e8afe0dc,5e8cd13540d8520846c8bc25,5f002ad1099f49124b653135,False,0.53,,,,,,,,
,p5card,27,119440,0.0-5.0-0.11,5eff7cd152e3fd04e8afe0dc,5e8cd13540d8520846c8bc25,5f002ad1099f49124b653135,False,0.53,1.0,j,test,769.6399998385459,f,0.0,,
,p5feedback,28,123218,0.0-5.0-1.11,5eff7cd152e3fd04e8afe0dc,5e8cd13540d8520846c8bc25,5f002ad1099f49124b653135,False,0.53,,,,,,,,
,p5card,29,126774,0.0-5.0-0.12,5eff7cd152e3fd04e8afe0dc,5e8cd13540d8520846c8bc25,5f002ad1099f49124b653135,False,0.53,0.0,f,test,1276.6400000546128,j,0.0,,
,p5feedback,30,128252,0.0-5.0-1.12,5eff7cd152e3fd04e8afe0dc,5e8cd13540d8520846c8bc25,5f002ad1099f49124b653135,False,0.53,,,,,,,,
,p5card,31,131041,0.0-5.0-0.13,5eff7cd152e3fd04e8afe0dc,5e8cd13540d8520846c8bc25,5f002ad1099f49124b653135,False,0.53,1.0,j,test,449.9749999959022,j,1.0,,
,p5feedback,32,136481,0.0-5.0-1.13,5eff7cd152e3fd04e8afe0dc,5e8cd13540d8520846c8bc25,5f002ad1099f49124b653135,False,0.53,,,,,,,,
,p5card,33,139276,0.0-5.0-0.14,5eff7cd152e3fd04e8afe0dc,5e8cd13540d8520846c8bc25,5f002ad1099f49124b653135,False,0.53,0.0,f,test,526.6549999359995,f,1.0,,
,p5feedback,34,141187,0.0-5.0-1.14,5eff7cd152e3fd04e8afe0dc,5e8cd13540d8520846c8bc25,5f002ad1099f49124b653135,False,0.53,,,,,,,,
,p5card,35,145042,0.0-5.0-0.15,5eff7cd152e3fd04e8afe0dc,5e8cd13540d8520846c8bc25,5f002ad1099f49124b653135,False,0.53,1.0,j,test,1513.4749999269843,f,0.0,,
,p5feedback,36,148753,0.0-5.0-1.15,5eff7cd152e3fd04e8afe0dc,5e8cd13540d8520846c8bc25,5f002ad1099f49124b653135,False,0.53,,,,,,,,
,p5card,37,151976,0.0-5.0-0.16,5eff7cd152e3fd04e8afe0dc,5e8cd13540d8520846c8bc25,5f002ad1099f49124b653135,False,0.53,1.0,j,test,933.9850000105798,j,1.0,,
,p5feedback,38,153658,0.0-5.0-1.16,5eff7cd152e3fd04e8afe0dc,5e8cd13540d8520846c8bc25,5f002ad1099f49124b653135,False,0.53,,,,,,,,
,p5card,39,156527,0.0-5.0-0.17,5eff7cd152e3fd04e8afe0dc,5e8cd13540d8520846c8bc25,5f002ad1099f49124b653135,False,0.53,0.0,f,test,555.2599998190999,f,1.0,,
,p5feedback,40,159188,0.0-5.0-1.17,5eff7cd152e3fd04e8afe0dc,5e8cd13540d8520846c8bc25,5f002ad1099f49124b653135,False,0.53,,,,,,,,
,p5card,41,162194,0.0-5.0-0.18,5eff7cd152e3fd04e8afe0dc,5e8cd13540d8520846c8bc25,5f002ad1099f49124b653135,False,0.53,0.0,f,test,716.1199999973178,f,1.0,,
,p5feedback,42,163772,0.0-5.0-1.18,5eff7cd152e3fd04e8afe0dc,5e8cd13540d8520846c8bc25,5f002ad1099f49124b653135,False,0.53,,,,,,,,
,p5card,43,167178,0.0-5.0-0.19,5eff7cd152e3fd04e8afe0dc,5e8cd13540d8520846c8bc25,5f002ad1099f49124b653135,False,0.53,1.0,j,test,1182.6599999330938,j,1.0,,
,p5feedback,44,170210,0.0-5.0-1.19,5eff7cd152e3fd04e8afe0dc,5e8cd13540d8520846c8bc25,5f002ad1099f49124b653135,False,0.53,,,,,,,,
,p5card,45,173045,0.0-5.0-0.20,5eff7cd152e3fd04e8afe0dc,5e8cd13540d8520846c8bc25,5f002ad1099f49124b653135,False,0.53,1.0,j,test,605.6549998465925,j,1.0,,
,p5feedback,46,175494,0.0-5.0-1.20,5eff7cd152e3fd04e8afe0dc,5e8cd13540d8520846c8bc25,5f002ad1099f49124b653135,False,0.53,,,,,,,,
,p5card,47,179412,0.0-5.0-0.21,5eff7cd152e3fd04e8afe0dc,5e8cd13540d8520846c8bc25,5f002ad1099f49124b653135,False,0.53,0.0,f,test,1719.8099999222904,f,1.0,,
,p5feedback,48,182040,0.0-5.0-1.21,5eff7cd152e3fd04e8afe0dc,5e8cd13540d8520846c8bc25,5f002ad1099f49124b653135,False,0.53,,,,,,,,
,p5card,49,186080,0.0-5.0-0.22,5eff7cd152e3fd04e8afe0dc,5e8cd13540d8520846c8bc25,5f002ad1099f49124b653135,False,0.53,0.0,f,test,1723.5850000288337,f,1.0,,
,p5feedback,50,187258,0.0-5.0-1.22,5eff7cd152e3fd04e8afe0dc,5e8cd13540d8520846c8bc25,5f002ad1099f49124b653135,False,0.53,,,,,,,,
,p5card,51,190146,0.0-5.0-0.23,5eff7cd152e3fd04e8afe0dc,5e8cd13540d8520846c8bc25,5f002ad1099f49124b653135,False,0.53,1.0,j,test,561.9050001259893,j,1.0,,
,p5feedback,52,191341,0.0-5.0-1.23,5eff7cd152e3fd04e8afe0dc,5e8cd13540d8520846c8bc25,5f002ad1099f49124b653135,False,0.53,,,,,,,,
,p5card,53,194330,0.0-5.0-0.24,5eff7cd152e3fd04e8afe0dc,5e8cd13540d8520846c8bc25,5f002ad1099f49124b653135,False,0.53,0.0,f,test,694.7200000286102,j,0.0,,
,p5feedback,54,195658,0.0-5.0-1.24,5eff7cd152e3fd04e8afe0dc,5e8cd13540d8520846c8bc25,5f002ad1099f49124b653135,False,0.53,,,,,,,,
,p5card,55,199197,0.0-5.0-0.25,5eff7cd152e3fd04e8afe0dc,5e8cd13540d8520846c8bc25,5f002ad1099f49124b653135,False,0.53,1.0,j,test,1255.4999999701977,j,1.0,,
,p5feedback,56,200026,0.0-5.0-1.25,5eff7cd152e3fd04e8afe0dc,5e8cd13540d8520846c8bc25,5f002ad1099f49124b653135,False,0.53,,,,,,,,
,p5card,57,203065,0.0-5.0-0.26,5eff7cd152e3fd04e8afe0dc,5e8cd13540d8520846c8bc25,5f002ad1099f49124b653135,False,0.53,1.0,j,test,810.025000013411,f,0.0,,
,p5feedback,58,203843,0.0-5.0-1.26,5eff7cd152e3fd04e8afe0dc,5e8cd13540d8520846c8bc25,5f002ad1099f49124b653135,False,0.53,,,,,,,,
,p5card,59,206682,0.0-5.0-0.27,5eff7cd152e3fd04e8afe0dc,5e8cd13540d8520846c8bc25,5f002ad1099f49124b653135,False,0.53,0.0,f,test,533.8950001168996,f,1.0,,
,p5feedback,60,207467,0.0-5.0-1.27,5eff7cd152e3fd04e8afe0dc,5e8cd13540d8520846c8bc25,5f002ad1099f49124b653135,False,0.53,,,,,,,,
,p5card,61,211032,0.0-5.0-0.28,5eff7cd152e3fd04e8afe0dc,5e8cd13540d8520846c8bc25,5f002ad1099f49124b653135,False,0.53,0.0,f,test,1345.0949999969453,f,1.0,,
,p5feedback,62,214443,0.0-5.0-1.28,5eff7cd152e3fd04e8afe0dc,5e8cd13540d8520846c8bc25,5f002ad1099f49124b653135,False,0.53,,,,,,,,
,p5card,63,217933,0.0-5.0-0.29,5eff7cd152e3fd04e8afe0dc,5e8cd13540d8520846c8bc25,5f002ad1099f49124b653135,False,0.53,1.0,j,test,1231.195000000298,j,1.0,,
,p5feedback,64,218944,0.0-5.0-1.29,5eff7cd152e3fd04e8afe0dc,5e8cd13540d8520846c8bc25,5f002ad1099f49124b653135,False,0.53,,,,,,,,
,p5card,65,221850,0.0-5.0-0.30,5eff7cd152e3fd04e8afe0dc,5e8cd13540d8520846c8bc25,5f002ad1099f49124b653135,False,0.53,1.0,j,test,664.3900000490248,f,0.0,,
,p5feedback,66,223294,0.0-5.0-1.30,5eff7cd152e3fd04e8afe0dc,5e8cd13540d8520846c8bc25,5f002ad1099f49124b653135,False,0.53,,,,,,,,
,p5card,67,225984,0.0-5.0-0.31,5eff7cd152e3fd04e8afe0dc,5e8cd13540d8520846c8bc25,5f002ad1099f49124b653135,False,0.53,0.0,f,test,394.9649999849498,f,1.0,,
,p5feedback,68,228445,0.0-5.0-1.31,5eff7cd152e3fd04e8afe0dc,5e8cd13540d8520846c8bc25,5f002ad1099f49124b653135,False,0.53,,,,,,,,
,p5card,69,231268,0.0-5.0-0.32,5eff7cd152e3fd04e8afe0dc,5e8cd13540d8520846c8bc25,5f002ad1099f49124b653135,False,0.53,0.0,f,test,567.0499999541789,j,0.0,,
,p5feedback,70,232000,0.0-5.0-1.32,5eff7cd152e3fd04e8afe0dc,5e8cd13540d8520846c8bc25,5f002ad1099f49124b653135,False,0.53,,,,,,,,
,p5card,71,235135,0.0-5.0-0.33,5eff7cd152e3fd04e8afe0dc,5e8cd13540d8520846c8bc25,5f002ad1099f49124b653135,False,0.53,1.0,j,test,787.9700001794845,f,0.0,,
,p5feedback,72,238012,0.0-5.0-1.33,5eff7cd152e3fd04e8afe0dc,5e8cd13540d8520846c8bc25,5f002ad1099f49124b653135,False,0.53,,,,,,,,
,p5card,73,241219,0.0-5.0-0.34,5eff7cd152e3fd04e8afe0dc,5e8cd13540d8520846c8bc25,5f002ad1099f49124b653135,False,0.53,0.0,f,test,940.6200000084937,j,0.0,,
,p5feedback,74,244183,0.0-5.0-1.34,5eff7cd152e3fd04e8afe0dc,5e8cd13540d8520846c8bc25,5f002ad1099f49124b653135,False,0.53,,,,,,,,
,p5card,75,246836,0.0-5.0-0.35,5eff7cd152e3fd04e8afe0dc,5e8cd13540d8520846c8bc25,5f002ad1099f49124b653135,False,0.53,1.0,j,test,340.5999999959022,j,1.0,,
,p5feedback,76,248296,0.0-5.0-1.35,5eff7cd152e3fd04e8afe0dc,5e8cd13540d8520846c8bc25,5f002ad1099f49124b653135,False,0.53,,,,,,,,
,p5card,77,251406,0.0-5.0-0.36,5eff7cd152e3fd04e8afe0dc,5e8cd13540d8520846c8bc25,5f002ad1099f49124b653135,False,0.53,1.0,j,test,804.3150000739843,j,1.0,,
,p5feedback,78,252497,0.0-5.0-1.36,5eff7cd152e3fd04e8afe0dc,5e8cd13540d8520846c8bc25,5f002ad1099f49124b653135,False,0.53,,,,,,,,
,p5card,79,257720,0.0-5.0-0.37,5eff7cd152e3fd04e8afe0dc,5e8cd13540d8520846c8bc25,5f002ad1099f49124b653135,False,0.53,0.0,f,test,2966.034999815747,j,0.0,,
,p5feedback,80,258930,0.0-5.0-1.37,5eff7cd152e3fd04e8afe0dc,5e8cd13540d8520846c8bc25,5f002ad1099f49124b653135,False,0.53,,,,,,,,
,p5card,81,265155,0.0-5.0-0.38,5eff7cd152e3fd04e8afe0dc,5e8cd13540d8520846c8bc25,5f002ad1099f49124b653135,False,0.53,1.0,j,test,3874.3800001684576,j,1.0,,
,p5feedback,82,266949,0.0-5.0-1.38,5eff7cd152e3fd04e8afe0dc,5e8cd13540d8520846c8bc25,5f002ad1099f49124b653135,False,0.53,,,,,,,,
,p5card,83,270822,0.0-5.0-0.39,5eff7cd152e3fd04e8afe0dc,5e8cd13540d8520846c8bc25,5f002ad1099f49124b653135,False,0.53,0.0,f,test,1568.0949999950826,f,1.0,,
,p5feedback,84,271616,0.0-5.0-1.39,5eff7cd152e3fd04e8afe0dc,5e8cd13540d8520846c8bc25,5f002ad1099f49124b653135,False,0.53,,,,,,,,
,p5card,85,275339,0.0-5.0-0.40,5eff7cd152e3fd04e8afe0dc,5e8cd13540d8520846c8bc25,5f002ad1099f49124b653135,False,0.53,1.0,j,test,1488.6049998458475,f,0.0,,
,p5feedback,86,276420,0.0-5.0-1.40,5eff7cd152e3fd04e8afe0dc,5e8cd13540d8520846c8bc25,5f002ad1099f49124b653135,False,0.53,,,,,,,,
,p5card,87,280240,0.0-5.0-0.41,5eff7cd152e3fd04e8afe0dc,5e8cd13540d8520846c8bc25,5f002ad1099f49124b653135,False,0.53,0.0,f,test,1605.9250000398606,j,0.0,,
,p5feedback,88,281456,0.0-5.0-1.41,5eff7cd152e3fd04e8afe0dc,5e8cd13540d8520846c8bc25,5f002ad1099f49124b653135,False,0.53,,,,,,,,
,p5card,89,285490,0.0-5.0-0.42,5eff7cd152e3fd04e8afe0dc,5e8cd13540d8520846c8bc25,5f002ad1099f49124b653135,False,0.53,0.0,f,test,1701.4949999284,f,1.0,,
,p5feedback,90,286317,0.0-5.0-1.42,5eff7cd152e3fd04e8afe0dc,5e8cd13540d8520846c8bc25,5f002ad1099f49124b653135,False,0.53,,,,,,,,
,p5card,91,289690,0.0-5.0-0.43,5eff7cd152e3fd04e8afe0dc,5e8cd13540d8520846c8bc25,5f002ad1099f49124b653135,False,0.53,1.0,j,test,1101.4549999963492,j,1.0,,
,p5feedback,92,290685,0.0-5.0-1.43,5eff7cd152e3fd04e8afe0dc,5e8cd13540d8520846c8bc25,5f002ad1099f49124b653135,False,0.53,,,,,,,,
,p5card,93,294891,0.0-5.0-0.44,5eff7cd152e3fd04e8afe0dc,5e8cd13540d8520846c8bc25,5f002ad1099f49124b653135,False,0.53,1.0,j,test,1924.4649999309331,j,1.0,,
,p5feedback,94,295987,0.0-5.0-1.44,5eff7cd152e3fd04e8afe0dc,5e8cd13540d8520846c8bc25,5f002ad1099f49124b653135,False,0.53,,,,,,,,
,p5card,95,300425,0.0-5.0-0.45,5eff7cd152e3fd04e8afe0dc,5e8cd13540d8520846c8bc25,5f002ad1099f49124b653135,False,0.53,0.0,f,test,2228.3049998804927,f,1.0,,
,p5feedback,96,301257,0.0-5.0-1.45,5eff7cd152e3fd04e8afe0dc,5e8cd13540d8520846c8bc25,5f002ad1099f49124b653135,False,0.53,,,,,,,,
,p5card,97,305442,0.0-5.0-0.46,5eff7cd152e3fd04e8afe0dc,5e8cd13540d8520846c8bc25,5f002ad1099f49124b653135,False,0.53,1.0,j,test,1827.3250001948327,f,0.0,,
,p5feedback,98,306369,0.0-5.0-1.46,5eff7cd152e3fd04e8afe0dc,5e8cd13540d8520846c8bc25,5f002ad1099f49124b653135,False,0.53,,,,,,,,
,p5card,99,312926,0.0-5.0-0.47,5eff7cd152e3fd04e8afe0dc,5e8cd13540d8520846c8bc25,5f002ad1099f49124b653135,False,0.53,0.0,f,test,4218.499999959022,j,0.0,,
,p5feedback,100,313337,0.0-5.0-1.47,5eff7cd152e3fd04e8afe0dc,5e8cd13540d8520846c8bc25,5f002ad1099f49124b653135,False,0.53,,,,,,,,
,p5card,101,317044,0.0-5.0-0.48,5eff7cd152e3fd04e8afe0dc,5e8cd13540d8520846c8bc25,5f002ad1099f49124b653135,False,0.53,0.0,f,test,1448.924999916926,f,1.0,,
,p5feedback,102,318354,0.0-5.0-1.48,5eff7cd152e3fd04e8afe0dc,5e8cd13540d8520846c8bc25,5f002ad1099f49124b653135,False,0.53,,,,,,,,
,p5card,103,321877,0.0-5.0-0.49,5eff7cd152e3fd04e8afe0dc,5e8cd13540d8520846c8bc25,5f002ad1099f49124b653135,False,0.53,1.0,j,test,1242.545000044629,j,1.0,,
,p5feedback,104,322621,0.0-5.0-1.49,5eff7cd152e3fd04e8afe0dc,5e8cd13540d8520846c8bc25,5f002ad1099f49124b653135,False,0.53,,,,,,,,
,p5card,105,326194,0.0-5.0-0.50,5eff7cd152e3fd04e8afe0dc,5e8cd13540d8520846c8bc25,5f002ad1099f49124b653135,False,0.53,0.0,f,test,1235.6750001199543,j,0.0,,
,p5feedback,106,327159,0.0-5.0-1.50,5eff7cd152e3fd04e8afe0dc,5e8cd13540d8520846c8bc25,5f002ad1099f49124b653135,False,0.53,,,,,,,,
,p5card,107,331113,0.0-5.0-0.51,5eff7cd152e3fd04e8afe0dc,5e8cd13540d8520846c8bc25,5f002ad1099f49124b653135,False,0.53,1.0,j,test,1718.0549998302013,f,0.0,,
,p5feedback,108,332527,0.0-5.0-1.51,5eff7cd152e3fd04e8afe0dc,5e8cd13540d8520846c8bc25,5f002ad1099f49124b653135,False,0.53,,,,,,,,
,p5card,109,336128,0.0-5.0-0.52,5eff7cd152e3fd04e8afe0dc,5e8cd13540d8520846c8bc25,5f002ad1099f49124b653135,False,0.53,1.0,j,test,1324.595000129193,j,1.0,,
,p5feedback,110,337393,0.0-5.0-1.52,5eff7cd152e3fd04e8afe0dc,5e8cd13540d8520846c8bc25,5f002ad1099f49124b653135,False,0.53,,,,,,,,
,p5card,111,341280,0.0-5.0-0.53,5eff7cd152e3fd04e8afe0dc,5e8cd13540d8520846c8bc25,5f002ad1099f49124b653135,False,0.53,0.0,f,test,1163.4850001428276,j,0.0,,
,p5feedback,112,342010,0.0-5.0-1.53,5eff7cd152e3fd04e8afe0dc,5e8cd13540d8520846c8bc25,5f002ad1099f49124b653135,False,0.53,,,,,,,,
,p5card,113,345397,0.0-5.0-0.54,5eff7cd152e3fd04e8afe0dc,5e8cd13540d8520846c8bc25,5f002ad1099f49124b653135,False,0.53,0.0,f,test,1071.324999909848,f,1.0,,
,p5feedback,114,346011,0.0-5.0-1.54,5eff7cd152e3fd04e8afe0dc,5e8cd13540d8520846c8bc25,5f002ad1099f49124b653135,False,0.53,,,,,,,,
,p5card,115,351199,0.0-5.0-0.55,5eff7cd152e3fd04e8afe0dc,5e8cd13540d8520846c8bc25,5f002ad1099f49124b653135,False,0.53,1.0,j,test,2898.7600000109524,j,1.0,,
,p5feedback,116,352341,0.0-5.0-1.55,5eff7cd152e3fd04e8afe0dc,5e8cd13540d8520846c8bc25,5f002ad1099f49124b653135,False,0.53,,,,,,,,
,p5card,117,355997,0.0-5.0-0.56,5eff7cd152e3fd04e8afe0dc,5e8cd13540d8520846c8bc25,5f002ad1099f49124b653135,False,0.53,0.0,f,test,1303.7150001619011,j,0.0,,
,p5feedback,118,356923,0.0-5.0-1.56,5eff7cd152e3fd04e8afe0dc,5e8cd13540d8520846c8bc25,5f002ad1099f49124b653135,False,0.53,,,,,,,,
,p5card,119,360865,0.0-5.0-0.57,5eff7cd152e3fd04e8afe0dc,5e8cd13540d8520846c8bc25,5f002ad1099f49124b653135,False,0.53,1.0,j,test,1627.3550000041723,f,0.0,,
,p5feedback,120,363442,0.0-5.0-1.57,5eff7cd152e3fd04e8afe0dc,5e8cd13540d8520846c8bc25,5f002ad1099f49124b653135,False,0.53,,,,,,,,
,p5card,121,366732,0.0-5.0-0.58,5eff7cd152e3fd04e8afe0dc,5e8cd13540d8520846c8bc25,5f002ad1099f49124b653135,False,0.53,0.0,f,test,1018.8400000333786,j,0.0,,
,p5feedback,122,369009,0.0-5.0-1.58,5eff7cd152e3fd04e8afe0dc,5e8cd13540d8520846c8bc25,5f002ad1099f49124b653135,False,0.53,,,,,,,,
,p5card,123,372266,0.0-5.0-0.59,5eff7cd152e3fd04e8afe0dc,5e8cd13540d8520846c8bc25,5f002ad1099f49124b653135,False,0.53,1.0,j,test,937.974999891594,j,1.0,,
,p5feedback,124,373076,0.0-5.0-1.59,5eff7cd152e3fd04e8afe0dc,5e8cd13540d8520846c8bc25,5f002ad1099f49124b653135,False,0.53,,,,,,,,
,p5card,125,377150,0.0-5.0-0.60,5eff7cd152e3fd04e8afe0dc,5e8cd13540d8520846c8bc25,5f002ad1099f49124b653135,False,0.53,0.0,f,test,1831.3849999103695,f,1.0,,
,p5feedback,126,377710,0.0-5.0-1.60,5eff7cd152e3fd04e8afe0dc,5e8cd13540d8520846c8bc25,5f002ad1099f49124b653135,False,0.53,,,,,,,,
,p5card,127,381684,0.0-5.0-0.61,5eff7cd152e3fd04e8afe0dc,5e8cd13540d8520846c8bc25,5f002ad1099f49124b653135,False,0.53,1.0,j,test,1649.974999949336,f,0.0,,
,p5feedback,128,382745,0.0-5.0-1.61,5eff7cd152e3fd04e8afe0dc,5e8cd13540d8520846c8bc25,5f002ad1099f49124b653135,False,0.53,,,,,,,,
,p5card,129,386551,0.0-5.0-0.62,5eff7cd152e3fd04e8afe0dc,5e8cd13540d8520846c8bc25,5f002ad1099f49124b653135,False,0.53,0.0,f,test,1541.7500000912696,j,0.0,,
,p5feedback,130,387147,0.0-5.0-1.62,5eff7cd152e3fd04e8afe0dc,5e8cd13540d8520846c8bc25,5f002ad1099f49124b653135,False,0.53,,,,,,,,
,p5card,131,390635,0.0-5.0-0.63,5eff7cd152e3fd04e8afe0dc,5e8cd13540d8520846c8bc25,5f002ad1099f49124b653135,False,0.53,1.0,j,test,1256.7950000520796,f,0.0,,
,p5feedback,132,392746,0.0-5.0-1.63,5eff7cd152e3fd04e8afe0dc,5e8cd13540d8520846c8bc25,5f002ad1099f49124b653135,False,0.53,,,,,,,,
,p5card,133,397002,0.0-5.0-0.64,5eff7cd152e3fd04e8afe0dc,5e8cd13540d8520846c8bc25,5f002ad1099f49124b653135,False,0.53,1.0,j,test,1971.6950000729412,j,1.0,,
,p5feedback,134,398515,0.0-5.0-1.64,5eff7cd152e3fd04e8afe0dc,5e8cd13540d8520846c8bc25,5f002ad1099f49124b653135,False,0.53,,,,,,,,
,p5card,135,401919,0.0-5.0-0.65,5eff7cd152e3fd04e8afe0dc,5e8cd13540d8520846c8bc25,5f002ad1099f49124b653135,False,0.53,0.0,f,test,1005.6549999862909,f,1.0,,
,p5feedback,136,403079,0.0-5.0-1.65,5eff7cd152e3fd04e8afe0dc,5e8cd13540d8520846c8bc25,5f002ad1099f49124b653135,False,0.53,,,,,,,,
,p5card,137,407087,0.0-5.0-0.66,5eff7cd152e3fd04e8afe0dc,5e8cd13540d8520846c8bc25,5f002ad1099f49124b653135,False,0.53,1.0,j,test,1766.9299999251962,f,0.0,,
,p5feedback,138,408334,0.0-5.0-1.66,5eff7cd152e3fd04e8afe0dc,5e8cd13540d8520846c8bc25,5f002ad1099f49124b653135,False,0.53,,,,,,,,
,p5card,139,411837,0.0-5.0-0.67,5eff7cd152e3fd04e8afe0dc,5e8cd13540d8520846c8bc25,5f002ad1099f49124b653135,False,0.53,0.0,f,test,1198.7699999008328,f,1.0,,
,p5feedback,140,413416,0.0-5.0-1.67,5eff7cd152e3fd04e8afe0dc,5e8cd13540d8520846c8bc25,5f002ad1099f49124b653135,False,0.53,,,,,,,,
,p5card,141,417454,0.0-5.0-0.68,5eff7cd152e3fd04e8afe0dc,5e8cd13540d8520846c8bc25,5f002ad1099f49124b653135,False,0.53,1.0,j,test,1837.0199999772012,j,1.0,,
