success,trial_type,trial_index,time_elapsed,internal_node_id,STUDY_ID,PROLIFIC_PID,SESSION_ID,FP,bonus,view_history,rt,stimulus,key_press,shape_array,effect,correct_response,test_part,trial_part,correct,responses,trial_name
1.0,fullscreen,0,3410,0.0-0.0,5f0c730df08fe65de0a547c0,5d44714cd36e050001d44e24,5f0c92d4c2d3a647fc3e2894,False,0.4,,,,,,,,,,,,
,instructions,1,43674,0.0-1.0,5f0c730df08fe65de0a547c0,5d44714cd36e050001d44e24,5f0c92d4c2d3a647fc3e2894,False,0.4,"[{""page_index"":0,""viewing_time"":5975.770000019111},{""page_index"":1,""viewing_time"":13982.694999955129},{""page_index"":2,""viewing_time"":14111.2650000141},{""page_index"":3,""viewing_time"":4464.344999985769},{""page_index"":4,""viewing_time"":1725.4800000227988}]",40260.699999984354,,,,,,,,,,
,html-keyboard-response,2,44185,0.0-2.0-0.0-0.0,5f0c730df08fe65de0a547c0,5d44714cd36e050001d44e24,5f0c92d4c2d3a647fc3e2894,False,0.4,,,"<h2>Will the cat appear after this screen?</h2><div class=""J_key""><strong>Yes</strong> <br> (press J)</div><div class=""F_key""><strong>No</strong> <br> (press F)</div>",,['stimuli/star.png'],0.0,f,practice,prepare,,,
,html-keyboard-response,3,47048,0.0-2.0-0.0-1.0,5f0c730df08fe65de0a547c0,5d44714cd36e050001d44e24,5f0c92d4c2d3a647fc3e2894,False,0.4,,2860.3349999757484,"<h2>Will the cat appear after this screen?</h2><div class=""J_key""><strong>Yes</strong> <br> (press J)</div><div class=""F_key""><strong>No</strong> <br> (press F)</div><div class=""central_stim""><img src=""stimuli/star.png"" width=""30%"" style=""padding:2vmin""></div>",70.0,['stimuli/star.png'],0.0,f,practice,main,1.0,,
,html-keyboard-response,4,49054,0.0-2.0-0.0-2.0,5f0c730df08fe65de0a547c0,5d44714cd36e050001d44e24,5f0c92d4c2d3a647fc3e2894,False,0.4,,,"<div class=""central_stim""></div>",,['stimuli/star.png'],0.0,f,practice,feedback,,,
,html-keyboard-response,5,49560,0.0-2.0-0.0-0.1,5f0c730df08fe65de0a547c0,5d44714cd36e050001d44e24,5f0c92d4c2d3a647fc3e2894,False,0.4,,,"<h2>Will the cat appear after this screen?</h2><div class=""J_key""><strong>Yes</strong> <br> (press J)</div><div class=""F_key""><strong>No</strong> <br> (press F)</div>",,['stimuli/heart.png'],1.0,j,practice,prepare,,,
,html-keyboard-response,6,50672,0.0-2.0-0.0-1.1,5f0c730df08fe65de0a547c0,5d44714cd36e050001d44e24,5f0c92d4c2d3a647fc3e2894,False,0.4,,1110.2850000024773,"<h2>Will the cat appear after this screen?</h2><div class=""J_key""><strong>Yes</strong> <br> (press J)</div><div class=""F_key""><strong>No</strong> <br> (press F)</div><div class=""central_stim""><img src=""stimuli/heart.png"" width=""30%"" style=""padding:2vmin""></div>",74.0,['stimuli/heart.png'],1.0,j,practice,main,1.0,,
,html-keyboard-response,7,52675,0.0-2.0-0.0-2.1,5f0c730df08fe65de0a547c0,5d44714cd36e050001d44e24,5f0c92d4c2d3a647fc3e2894,False,0.4,,,"<div class=""central_stim""><img src=""stimuli/cat.png"" class=""cat""></div>",,['stimuli/heart.png'],1.0,j,practice,feedback,,,
,html-keyboard-response,8,53179,0.0-2.0-0.0-0.2,5f0c730df08fe65de0a547c0,5d44714cd36e050001d44e24,5f0c92d4c2d3a647fc3e2894,False,0.4,,,"<h2>Will the cat appear after this screen?</h2><div class=""J_key""><strong>Yes</strong> <br> (press J)</div><div class=""F_key""><strong>No</strong> <br> (press F)</div>",,['stimuli/heart.png'],1.0,j,practice,prepare,,,
,html-keyboard-response,9,54230,0.0-2.0-0.0-1.2,5f0c730df08fe65de0a547c0,5d44714cd36e050001d44e24,5f0c92d4c2d3a647fc3e2894,False,0.4,,1049.524999980349,"<h2>Will the cat appear after this screen?</h2><div class=""J_key""><strong>Yes</strong> <br> (press J)</div><div class=""F_key""><strong>No</strong> <br> (press F)</div><div class=""central_stim""><img src=""stimuli/heart.png"" width=""30%"" style=""padding:2vmin""></div>",74.0,['stimuli/heart.png'],1.0,j,practice,main,1.0,,
,html-keyboard-response,10,56235,0.0-2.0-0.0-2.2,5f0c730df08fe65de0a547c0,5d44714cd36e050001d44e24,5f0c92d4c2d3a647fc3e2894,False,0.4,,,"<div class=""central_stim""><img src=""stimuli/cat.png"" class=""cat""></div>",,['stimuli/heart.png'],1.0,j,practice,feedback,,,
,html-keyboard-response,11,56743,0.0-2.0-0.0-0.3,5f0c730df08fe65de0a547c0,5d44714cd36e050001d44e24,5f0c92d4c2d3a647fc3e2894,False,0.4,,,"<h2>Will the cat appear after this screen?</h2><div class=""J_key""><strong>Yes</strong> <br> (press J)</div><div class=""F_key""><strong>No</strong> <br> (press F)</div>",,['stimuli/star.png'],0.0,f,practice,prepare,,,
,html-keyboard-response,12,57182,0.0-2.0-0.0-1.3,5f0c730df08fe65de0a547c0,5d44714cd36e050001d44e24,5f0c92d4c2d3a647fc3e2894,False,0.4,,437.5599999912083,"<h2>Will the cat appear after this screen?</h2><div class=""J_key""><strong>Yes</strong> <br> (press J)</div><div class=""F_key""><strong>No</strong> <br> (press F)</div><div class=""central_stim""><img src=""stimuli/star.png"" width=""30%"" style=""padding:2vmin""></div>",70.0,['stimuli/star.png'],0.0,f,practice,main,1.0,,
,html-keyboard-response,13,59186,0.0-2.0-0.0-2.3,5f0c730df08fe65de0a547c0,5d44714cd36e050001d44e24,5f0c92d4c2d3a647fc3e2894,False,0.4,,,"<div class=""central_stim""></div>",,['stimuli/star.png'],0.0,f,practice,feedback,,,
,survey-text,14,88845,0.0-3.0,5f0c730df08fe65de0a547c0,5d44714cd36e050001d44e24,5f0c92d4c2d3a647fc3e2894,False,0.4,,29652.645000023767,,,,,,,,,"{""Q0"":""We press the f key if we do not think a cat will appear and we press the j key if we think the cat will appear""}",
,instructions,15,93096,0.0-4.0,5f0c730df08fe65de0a547c0,5d44714cd36e050001d44e24,5f0c92d4c2d3a647fc3e2894,False,0.4,"[{""page_index"":0,""viewing_time"":4248.844999994617}]",4249.6549999923445,,,,,,,,,,
,html-keyboard-response,16,93599,0.0-5.0-0.0,5f0c730df08fe65de0a547c0,5d44714cd36e050001d44e24,5f0c92d4c2d3a647fc3e2894,False,0.4,,,"<h2>Will the cat appear after this screen?</h2><div class=""J_key""><strong>Yes</strong> <br> (press J)</div><div class=""F_key""><strong>No</strong> <br> (press F)</div><p class=""progress""> [1/64]</br>number of points: 0</p>",,['stimuli/clover.png'],0.0,f,test,prepare,,,E-
,html-keyboard-response,17,96584,0.0-5.0-1.0,5f0c730df08fe65de0a547c0,5d44714cd36e050001d44e24,5f0c92d4c2d3a647fc3e2894,False,0.4,,2983.074999996461,"<h2>Will the cat appear after this screen?</h2><div class=""J_key""><strong>Yes</strong> <br> (press J)</div><div class=""F_key""><strong>No</strong> <br> (press F)</div><div class=""central_stim""><img src=""stimuli/clover.png"" width=""30%"" style=""padding:2vmin""></div><p class=""progress""> [1/64]</br>number of points: 0</p>",74.0,['stimuli/clover.png'],0.0,f,test,main,0.0,,E-
,html-keyboard-response,18,98590,0.0-5.0-2.0,5f0c730df08fe65de0a547c0,5d44714cd36e050001d44e24,5f0c92d4c2d3a647fc3e2894,False,0.4,,,"<div class=""central_stim""></div><p class=""progress""> [1/64]</br>number of points: 0</p>",,['stimuli/clover.png'],0.0,f,test,feedback,,,E-
,html-keyboard-response,19,99094,0.0-5.0-0.1,5f0c730df08fe65de0a547c0,5d44714cd36e050001d44e24,5f0c92d4c2d3a647fc3e2894,False,0.4,,,"<h2>Will the cat appear after this screen?</h2><div class=""J_key""><strong>Yes</strong> <br> (press J)</div><div class=""F_key""><strong>No</strong> <br> (press F)</div><p class=""progress""> [2/64]</br>number of points: 0</p>",,['stimuli/Q.png'],0.0,f,test,prepare,,,O+
,html-keyboard-response,20,99978,0.0-5.0-1.1,5f0c730df08fe65de0a547c0,5d44714cd36e050001d44e24,5f0c92d4c2d3a647fc3e2894,False,0.4,,882.0550000527874,"<h2>Will the cat appear after this screen?</h2><div class=""J_key""><strong>Yes</strong> <br> (press J)</div><div class=""F_key""><strong>No</strong> <br> (press F)</div><div class=""central_stim""><img src=""stimuli/Q.png"" width=""30%"" style=""padding:2vmin""></div><p class=""progress""> [2/64]</br>number of points: 0</p>",74.0,['stimuli/Q.png'],0.0,f,test,main,0.0,,O+
,html-keyboard-response,21,101986,0.0-5.0-2.1,5f0c730df08fe65de0a547c0,5d44714cd36e050001d44e24,5f0c92d4c2d3a647fc3e2894,False,0.4,,,"<div class=""central_stim""></div><p class=""progress""> [2/64]</br>number of points: 0</p>",,['stimuli/Q.png'],0.0,f,test,feedback,,,O+
,html-keyboard-response,22,102492,0.0-5.0-0.2,5f0c730df08fe65de0a547c0,5d44714cd36e050001d44e24,5f0c92d4c2d3a647fc3e2894,False,0.4,,,"<h2>Will the cat appear after this screen?</h2><div class=""J_key""><strong>Yes</strong> <br> (press J)</div><div class=""F_key""><strong>No</strong> <br> (press F)</div><p class=""progress""> [3/64]</br>number of points: 0</p>",,['stimuli/spade.png'],1.0,j,test,prepare,,,B+
,html-keyboard-response,23,103512,0.0-5.0-1.2,5f0c730df08fe65de0a547c0,5d44714cd36e050001d44e24,5f0c92d4c2d3a647fc3e2894,False,0.4,,1018.5749999945983,"<h2>Will the cat appear after this screen?</h2><div class=""J_key""><strong>Yes</strong> <br> (press J)</div><div class=""F_key""><strong>No</strong> <br> (press F)</div><div class=""central_stim""><img src=""stimuli/spade.png"" width=""30%"" style=""padding:2vmin""></div><p class=""progress""> [3/64]</br>number of points: 0</p>",70.0,['stimuli/spade.png'],1.0,j,test,main,0.0,,B+
,html-keyboard-response,24,105516,0.0-5.0-2.2,5f0c730df08fe65de0a547c0,5d44714cd36e050001d44e24,5f0c92d4c2d3a647fc3e2894,False,0.4,,,"<div class=""central_stim""><img src=""stimuli/cat.png"" class=""cat""></div><p class=""progress""> [3/64]</br>number of points: 0</p>",,['stimuli/spade.png'],1.0,j,test,feedback,,,B+
,html-keyboard-response,25,106023,0.0-5.0-0.3,5f0c730df08fe65de0a547c0,5d44714cd36e050001d44e24,5f0c92d4c2d3a647fc3e2894,False,0.4,,,"<h2>Will the cat appear after this screen?</h2><div class=""J_key""><strong>Yes</strong> <br> (press J)</div><div class=""F_key""><strong>No</strong> <br> (press F)</div><p class=""progress""> [4/64]</br>number of points: 0</p>",,"['stimuli/circle.png', 'stimuli/diamond.png']",0.0,f,test,prepare,,,CD-
,html-keyboard-response,26,107419,0.0-5.0-1.3,5f0c730df08fe65de0a547c0,5d44714cd36e050001d44e24,5f0c92d4c2d3a647fc3e2894,False,0.4,,1393.819999997504,"<h2>Will the cat appear after this screen?</h2><div class=""J_key""><strong>Yes</strong> <br> (press J)</div><div class=""F_key""><strong>No</strong> <br> (press F)</div><div class=""central_stim""><img src=""stimuli/diamond.png"" width=""30%"" style=""padding:2vmin"">	<img src=""stimuli/circle.png"" width=""30%"" style=""padding:2vmin""></div><p class=""progress""> [4/64]</br>number of points: 0</p>",74.0,"['stimuli/circle.png', 'stimuli/diamond.png']",0.0,f,test,main,0.0,,CD-
,html-keyboard-response,27,109428,0.0-5.0-2.3,5f0c730df08fe65de0a547c0,5d44714cd36e050001d44e24,5f0c92d4c2d3a647fc3e2894,False,0.4,,,"<div class=""central_stim""></div><p class=""progress""> [4/64]</br>number of points: 0</p>",,"['stimuli/circle.png', 'stimuli/diamond.png']",0.0,f,test,feedback,,,CD-
,html-keyboard-response,28,109932,0.0-5.0-0.4,5f0c730df08fe65de0a547c0,5d44714cd36e050001d44e24,5f0c92d4c2d3a647fc3e2894,False,0.4,,,"<h2>Will the cat appear after this screen?</h2><div class=""J_key""><strong>Yes</strong> <br> (press J)</div><div class=""F_key""><strong>No</strong> <br> (press F)</div><p class=""progress""> [5/64]</br>number of points: 0</p>",,['stimuli/plus.png'],0.0,f,test,prepare,,,A-
,html-keyboard-response,29,110623,0.0-5.0-1.4,5f0c730df08fe65de0a547c0,5d44714cd36e050001d44e24,5f0c92d4c2d3a647fc3e2894,False,0.4,,688.6749999830499,"<h2>Will the cat appear after this screen?</h2><div class=""J_key""><strong>Yes</strong> <br> (press J)</div><div class=""F_key""><strong>No</strong> <br> (press F)</div><div class=""central_stim""><img src=""stimuli/plus.png"" width=""30%"" style=""padding:2vmin""></div><p class=""progress""> [5/64]</br>number of points: 0</p>",74.0,['stimuli/plus.png'],0.0,f,test,main,0.0,,A-
,html-keyboard-response,30,112627,0.0-5.0-2.4,5f0c730df08fe65de0a547c0,5d44714cd36e050001d44e24,5f0c92d4c2d3a647fc3e2894,False,0.4,,,"<div class=""central_stim""></div><p class=""progress""> [5/64]</br>number of points: 0</p>",,['stimuli/plus.png'],0.0,f,test,feedback,,,A-
,html-keyboard-response,31,113134,0.0-5.0-0.5,5f0c730df08fe65de0a547c0,5d44714cd36e050001d44e24,5f0c92d4c2d3a647fc3e2894,False,0.4,,,"<h2>Will the cat appear after this screen?</h2><div class=""J_key""><strong>Yes</strong> <br> (press J)</div><div class=""F_key""><strong>No</strong> <br> (press F)</div><p class=""progress""> [6/64]</br>number of points: 0</p>",,['stimuli/O.png'],1.0,j,test,prepare,,,Q-
,html-keyboard-response,32,114405,0.0-5.0-1.5,5f0c730df08fe65de0a547c0,5d44714cd36e050001d44e24,5f0c92d4c2d3a647fc3e2894,False,0.4,,1268.96499999566,"<h2>Will the cat appear after this screen?</h2><div class=""J_key""><strong>Yes</strong> <br> (press J)</div><div class=""F_key""><strong>No</strong> <br> (press F)</div><div class=""central_stim""><img src=""stimuli/O.png"" width=""30%"" style=""padding:2vmin""></div><p class=""progress""> [6/64]</br>number of points: 0</p>",74.0,['stimuli/O.png'],1.0,j,test,main,1.0,,Q-
,html-keyboard-response,33,116413,0.0-5.0-2.5,5f0c730df08fe65de0a547c0,5d44714cd36e050001d44e24,5f0c92d4c2d3a647fc3e2894,False,0.4,,,"<div class=""central_stim""><img src=""stimuli/cat.png"" class=""cat""></div><p class=""progress""> [6/64]</br>number of points: 1</p>",,['stimuli/O.png'],1.0,j,test,feedback,,,Q-
,html-keyboard-response,34,116916,0.0-5.0-0.6,5f0c730df08fe65de0a547c0,5d44714cd36e050001d44e24,5f0c92d4c2d3a647fc3e2894,False,0.4,,,"<h2>Will the cat appear after this screen?</h2><div class=""J_key""><strong>Yes</strong> <br> (press J)</div><div class=""F_key""><strong>No</strong> <br> (press F)</div><p class=""progress""> [7/64]</br>number of points: 1</p>",,['stimuli/circle.png'],1.0,j,test,prepare,,,C+
,html-keyboard-response,35,117219,0.0-5.0-1.6,5f0c730df08fe65de0a547c0,5d44714cd36e050001d44e24,5f0c92d4c2d3a647fc3e2894,False,0.4,,301.34999996516854,"<h2>Will the cat appear after this screen?</h2><div class=""J_key""><strong>Yes</strong> <br> (press J)</div><div class=""F_key""><strong>No</strong> <br> (press F)</div><div class=""central_stim""><img src=""stimuli/circle.png"" width=""30%"" style=""padding:2vmin""></div><p class=""progress""> [7/64]</br>number of points: 1</p>",70.0,['stimuli/circle.png'],1.0,j,test,main,0.0,,C+
,html-keyboard-response,36,119227,0.0-5.0-2.6,5f0c730df08fe65de0a547c0,5d44714cd36e050001d44e24,5f0c92d4c2d3a647fc3e2894,False,0.4,,,"<div class=""central_stim""><img src=""stimuli/cat.png"" class=""cat""></div><p class=""progress""> [7/64]</br>number of points: 1</p>",,['stimuli/circle.png'],1.0,j,test,feedback,,,C+
,html-keyboard-response,37,119734,0.0-5.0-0.7,5f0c730df08fe65de0a547c0,5d44714cd36e050001d44e24,5f0c92d4c2d3a647fc3e2894,False,0.4,,,"<h2>Will the cat appear after this screen?</h2><div class=""J_key""><strong>Yes</strong> <br> (press J)</div><div class=""F_key""><strong>No</strong> <br> (press F)</div><p class=""progress""> [8/64]</br>number of points: 1</p>",,"['stimuli/down_facing.png', 'stimuli/clover.png']",1.0,j,test,prepare,,,EF+
,html-keyboard-response,38,120475,0.0-5.0-1.7,5f0c730df08fe65de0a547c0,5d44714cd36e050001d44e24,5f0c92d4c2d3a647fc3e2894,False,0.4,,739.159999997355,"<h2>Will the cat appear after this screen?</h2><div class=""J_key""><strong>Yes</strong> <br> (press J)</div><div class=""F_key""><strong>No</strong> <br> (press F)</div><div class=""central_stim""><img src=""stimuli/down_facing.png"" width=""30%"" style=""padding:2vmin"">	<img src=""stimuli/clover.png"" width=""30%"" style=""padding:2vmin""></div><p class=""progress""> [8/64]</br>number of points: 1</p>",70.0,"['stimuli/down_facing.png', 'stimuli/clover.png']",1.0,j,test,main,0.0,,EF+
,html-keyboard-response,39,122478,0.0-5.0-2.7,5f0c730df08fe65de0a547c0,5d44714cd36e050001d44e24,5f0c92d4c2d3a647fc3e2894,False,0.4,,,"<div class=""central_stim""><img src=""stimuli/cat.png"" class=""cat""></div><p class=""progress""> [8/64]</br>number of points: 1</p>",,"['stimuli/down_facing.png', 'stimuli/clover.png']",1.0,j,test,feedback,,,EF+
,html-keyboard-response,40,122985,0.0-5.0-0.8,5f0c730df08fe65de0a547c0,5d44714cd36e050001d44e24,5f0c92d4c2d3a647fc3e2894,False,0.4,,,"<h2>Will the cat appear after this screen?</h2><div class=""J_key""><strong>Yes</strong> <br> (press J)</div><div class=""F_key""><strong>No</strong> <br> (press F)</div><p class=""progress""> [9/64]</br>number of points: 1</p>",,"['stimuli/down_facing.png', 'stimuli/clover.png']",1.0,j,test,prepare,,,EF+
,html-keyboard-response,41,124482,0.0-5.0-1.8,5f0c730df08fe65de0a547c0,5d44714cd36e050001d44e24,5f0c92d4c2d3a647fc3e2894,False,0.4,,1495.279999973718,"<h2>Will the cat appear after this screen?</h2><div class=""J_key""><strong>Yes</strong> <br> (press J)</div><div class=""F_key""><strong>No</strong> <br> (press F)</div><div class=""central_stim""><img src=""stimuli/down_facing.png"" width=""30%"" style=""padding:2vmin"">	<img src=""stimuli/clover.png"" width=""30%"" style=""padding:2vmin""></div><p class=""progress""> [9/64]</br>number of points: 1</p>",70.0,"['stimuli/down_facing.png', 'stimuli/clover.png']",1.0,j,test,main,0.0,,EF+
,html-keyboard-response,42,126485,0.0-5.0-2.8,5f0c730df08fe65de0a547c0,5d44714cd36e050001d44e24,5f0c92d4c2d3a647fc3e2894,False,0.4,,,"<div class=""central_stim""><img src=""stimuli/cat.png"" class=""cat""></div><p class=""progress""> [9/64]</br>number of points: 1</p>",,"['stimuli/down_facing.png', 'stimuli/clover.png']",1.0,j,test,feedback,,,EF+
,html-keyboard-response,43,126988,0.0-5.0-0.9,5f0c730df08fe65de0a547c0,5d44714cd36e050001d44e24,5f0c92d4c2d3a647fc3e2894,False,0.4,,,"<h2>Will the cat appear after this screen?</h2><div class=""J_key""><strong>Yes</strong> <br> (press J)</div><div class=""F_key""><strong>No</strong> <br> (press F)</div><p class=""progress""> [10/64]</br>number of points: 1</p>",,['stimuli/Q.png'],0.0,f,test,prepare,,,O+
,html-keyboard-response,44,128006,0.0-5.0-1.9,5f0c730df08fe65de0a547c0,5d44714cd36e050001d44e24,5f0c92d4c2d3a647fc3e2894,False,0.4,,1015.285000030417,"<h2>Will the cat appear after this screen?</h2><div class=""J_key""><strong>Yes</strong> <br> (press J)</div><div class=""F_key""><strong>No</strong> <br> (press F)</div><div class=""central_stim""><img src=""stimuli/Q.png"" width=""30%"" style=""padding:2vmin""></div><p class=""progress""> [10/64]</br>number of points: 1</p>",70.0,['stimuli/Q.png'],0.0,f,test,main,1.0,,O+
,html-keyboard-response,45,130015,0.0-5.0-2.9,5f0c730df08fe65de0a547c0,5d44714cd36e050001d44e24,5f0c92d4c2d3a647fc3e2894,False,0.4,,,"<div class=""central_stim""></div><p class=""progress""> [10/64]</br>number of points: 2</p>",,['stimuli/Q.png'],0.0,f,test,feedback,,,O+
,html-keyboard-response,46,130521,0.0-5.0-0.10,5f0c730df08fe65de0a547c0,5d44714cd36e050001d44e24,5f0c92d4c2d3a647fc3e2894,False,0.4,,,"<h2>Will the cat appear after this screen?</h2><div class=""J_key""><strong>Yes</strong> <br> (press J)</div><div class=""F_key""><strong>No</strong> <br> (press F)</div><p class=""progress""> [11/64]</br>number of points: 2</p>",,['stimuli/O.png'],1.0,j,test,prepare,,,Q-
,html-keyboard-response,47,131251,0.0-5.0-1.10,5f0c730df08fe65de0a547c0,5d44714cd36e050001d44e24,5f0c92d4c2d3a647fc3e2894,False,0.4,,727.0900000003166,"<h2>Will the cat appear after this screen?</h2><div class=""J_key""><strong>Yes</strong> <br> (press J)</div><div class=""F_key""><strong>No</strong> <br> (press F)</div><div class=""central_stim""><img src=""stimuli/O.png"" width=""30%"" style=""padding:2vmin""></div><p class=""progress""> [11/64]</br>number of points: 2</p>",74.0,['stimuli/O.png'],1.0,j,test,main,1.0,,Q-
,html-keyboard-response,48,133260,0.0-5.0-2.10,5f0c730df08fe65de0a547c0,5d44714cd36e050001d44e24,5f0c92d4c2d3a647fc3e2894,False,0.4,,,"<div class=""central_stim""><img src=""stimuli/cat.png"" class=""cat""></div><p class=""progress""> [11/64]</br>number of points: 3</p>",,['stimuli/O.png'],1.0,j,test,feedback,,,Q-
,html-keyboard-response,49,133770,0.0-5.0-0.11,5f0c730df08fe65de0a547c0,5d44714cd36e050001d44e24,5f0c92d4c2d3a647fc3e2894,False,0.4,,,"<h2>Will the cat appear after this screen?</h2><div class=""J_key""><strong>Yes</strong> <br> (press J)</div><div class=""F_key""><strong>No</strong> <br> (press F)</div><p class=""progress""> [12/64]</br>number of points: 3</p>",,['stimuli/spade.png'],1.0,j,test,prepare,,,B+
,html-keyboard-response,50,134579,0.0-5.0-1.11,5f0c730df08fe65de0a547c0,5d44714cd36e050001d44e24,5f0c92d4c2d3a647fc3e2894,False,0.4,,807.0600000210106,"<h2>Will the cat appear after this screen?</h2><div class=""J_key""><strong>Yes</strong> <br> (press J)</div><div class=""F_key""><strong>No</strong> <br> (press F)</div><div class=""central_stim""><img src=""stimuli/spade.png"" width=""30%"" style=""padding:2vmin""></div><p class=""progress""> [12/64]</br>number of points: 3</p>",74.0,['stimuli/spade.png'],1.0,j,test,main,1.0,,B+
,html-keyboard-response,51,136585,0.0-5.0-2.11,5f0c730df08fe65de0a547c0,5d44714cd36e050001d44e24,5f0c92d4c2d3a647fc3e2894,False,0.4,,,"<div class=""central_stim""><img src=""stimuli/cat.png"" class=""cat""></div><p class=""progress""> [12/64]</br>number of points: 4</p>",,['stimuli/spade.png'],1.0,j,test,feedback,,,B+
,html-keyboard-response,52,137092,0.0-5.0-0.12,5f0c730df08fe65de0a547c0,5d44714cd36e050001d44e24,5f0c92d4c2d3a647fc3e2894,False,0.4,,,"<h2>Will the cat appear after this screen?</h2><div class=""J_key""><strong>Yes</strong> <br> (press J)</div><div class=""F_key""><strong>No</strong> <br> (press F)</div><p class=""progress""> [13/64]</br>number of points: 4</p>",,['stimuli/circle.png'],1.0,j,test,prepare,,,C+
,html-keyboard-response,53,138525,0.0-5.0-1.12,5f0c730df08fe65de0a547c0,5d44714cd36e050001d44e24,5f0c92d4c2d3a647fc3e2894,False,0.4,,1430.7000000262633,"<h2>Will the cat appear after this screen?</h2><div class=""J_key""><strong>Yes</strong> <br> (press J)</div><div class=""F_key""><strong>No</strong> <br> (press F)</div><div class=""central_stim""><img src=""stimuli/circle.png"" width=""30%"" style=""padding:2vmin""></div><p class=""progress""> [13/64]</br>number of points: 4</p>",70.0,['stimuli/circle.png'],1.0,j,test,main,0.0,,C+
,html-keyboard-response,54,140530,0.0-5.0-2.12,5f0c730df08fe65de0a547c0,5d44714cd36e050001d44e24,5f0c92d4c2d3a647fc3e2894,False,0.4,,,"<div class=""central_stim""><img src=""stimuli/cat.png"" class=""cat""></div><p class=""progress""> [13/64]</br>number of points: 4</p>",,['stimuli/circle.png'],1.0,j,test,feedback,,,C+
,html-keyboard-response,55,141034,0.0-5.0-0.13,5f0c730df08fe65de0a547c0,5d44714cd36e050001d44e24,5f0c92d4c2d3a647fc3e2894,False,0.4,,,"<h2>Will the cat appear after this screen?</h2><div class=""J_key""><strong>Yes</strong> <br> (press J)</div><div class=""F_key""><strong>No</strong> <br> (press F)</div><p class=""progress""> [14/64]</br>number of points: 4</p>",,"['stimuli/circle.png', 'stimuli/diamond.png']",0.0,f,test,prepare,,,CD-
,html-keyboard-response,56,141805,0.0-5.0-1.13,5f0c730df08fe65de0a547c0,5d44714cd36e050001d44e24,5f0c92d4c2d3a647fc3e2894,False,0.4,,768.7949999817647,"<h2>Will the cat appear after this screen?</h2><div class=""J_key""><strong>Yes</strong> <br> (press J)</div><div class=""F_key""><strong>No</strong> <br> (press F)</div><div class=""central_stim""><img src=""stimuli/diamond.png"" width=""30%"" style=""padding:2vmin"">	<img src=""stimuli/circle.png"" width=""30%"" style=""padding:2vmin""></div><p class=""progress""> [14/64]</br>number of points: 4</p>",74.0,"['stimuli/circle.png', 'stimuli/diamond.png']",0.0,f,test,main,0.0,,CD-
,html-keyboard-response,57,143811,0.0-5.0-2.13,5f0c730df08fe65de0a547c0,5d44714cd36e050001d44e24,5f0c92d4c2d3a647fc3e2894,False,0.4,,,"<div class=""central_stim""></div><p class=""progress""> [14/64]</br>number of points: 4</p>",,"['stimuli/circle.png', 'stimuli/diamond.png']",0.0,f,test,feedback,,,CD-
,html-keyboard-response,58,144316,0.0-5.0-0.14,5f0c730df08fe65de0a547c0,5d44714cd36e050001d44e24,5f0c92d4c2d3a647fc3e2894,False,0.4,,,"<h2>Will the cat appear after this screen?</h2><div class=""J_key""><strong>Yes</strong> <br> (press J)</div><div class=""F_key""><strong>No</strong> <br> (press F)</div><p class=""progress""> [15/64]</br>number of points: 4</p>",,['stimuli/clover.png'],0.0,f,test,prepare,,,E-
,html-keyboard-response,59,145134,0.0-5.0-1.14,5f0c730df08fe65de0a547c0,5d44714cd36e050001d44e24,5f0c92d4c2d3a647fc3e2894,False,0.4,,816.7050000047311,"<h2>Will the cat appear after this screen?</h2><div class=""J_key""><strong>Yes</strong> <br> (press J)</div><div class=""F_key""><strong>No</strong> <br> (press F)</div><div class=""central_stim""><img src=""stimuli/clover.png"" width=""30%"" style=""padding:2vmin""></div><p class=""progress""> [15/64]</br>number of points: 4</p>",74.0,['stimuli/clover.png'],0.0,f,test,main,0.0,,E-
,html-keyboard-response,60,147143,0.0-5.0-2.14,5f0c730df08fe65de0a547c0,5d44714cd36e050001d44e24,5f0c92d4c2d3a647fc3e2894,False,0.4,,,"<div class=""central_stim""></div><p class=""progress""> [15/64]</br>number of points: 4</p>",,['stimuli/clover.png'],0.0,f,test,feedback,,,E-
,html-keyboard-response,61,147647,0.0-5.0-0.15,5f0c730df08fe65de0a547c0,5d44714cd36e050001d44e24,5f0c92d4c2d3a647fc3e2894,False,0.4,,,"<h2>Will the cat appear after this screen?</h2><div class=""J_key""><strong>Yes</strong> <br> (press J)</div><div class=""F_key""><strong>No</strong> <br> (press F)</div><p class=""progress""> [16/64]</br>number of points: 4</p>",,['stimuli/plus.png'],0.0,f,test,prepare,,,A-
,html-keyboard-response,62,148372,0.0-5.0-1.15,5f0c730df08fe65de0a547c0,5d44714cd36e050001d44e24,5f0c92d4c2d3a647fc3e2894,False,0.4,,722.8500000201166,"<h2>Will the cat appear after this screen?</h2><div class=""J_key""><strong>Yes</strong> <br> (press J)</div><div class=""F_key""><strong>No</strong> <br> (press F)</div><div class=""central_stim""><img src=""stimuli/plus.png"" width=""30%"" style=""padding:2vmin""></div><p class=""progress""> [16/64]</br>number of points: 4</p>",74.0,['stimuli/plus.png'],0.0,f,test,main,0.0,,A-
,html-keyboard-response,63,150375,0.0-5.0-2.15,5f0c730df08fe65de0a547c0,5d44714cd36e050001d44e24,5f0c92d4c2d3a647fc3e2894,False,0.4,,,"<div class=""central_stim""></div><p class=""progress""> [16/64]</br>number of points: 4</p>",,['stimuli/plus.png'],0.0,f,test,feedback,,,A-
,html-keyboard-response,64,150879,0.0-5.0-0.16,5f0c730df08fe65de0a547c0,5d44714cd36e050001d44e24,5f0c92d4c2d3a647fc3e2894,False,0.4,,,"<h2>Will the cat appear after this screen?</h2><div class=""J_key""><strong>Yes</strong> <br> (press J)</div><div class=""F_key""><strong>No</strong> <br> (press F)</div><p class=""progress""> [17/64]</br>number of points: 4</p>",,['stimuli/clover.png'],0.0,f,test,prepare,,,E-
,html-keyboard-response,65,152123,0.0-5.0-1.16,5f0c730df08fe65de0a547c0,5d44714cd36e050001d44e24,5f0c92d4c2d3a647fc3e2894,False,0.4,,1241.0099999979138,"<h2>Will the cat appear after this screen?</h2><div class=""J_key""><strong>Yes</strong> <br> (press J)</div><div class=""F_key""><strong>No</strong> <br> (press F)</div><div class=""central_stim""><img src=""stimuli/clover.png"" width=""30%"" style=""padding:2vmin""></div><p class=""progress""> [17/64]</br>number of points: 4</p>",70.0,['stimuli/clover.png'],0.0,f,test,main,1.0,,E-
,html-keyboard-response,66,154130,0.0-5.0-2.16,5f0c730df08fe65de0a547c0,5d44714cd36e050001d44e24,5f0c92d4c2d3a647fc3e2894,False,0.4,,,"<div class=""central_stim""></div><p class=""progress""> [17/64]</br>number of points: 5</p>",,['stimuli/clover.png'],0.0,f,test,feedback,,,E-
,html-keyboard-response,67,154634,0.0-5.0-0.17,5f0c730df08fe65de0a547c0,5d44714cd36e050001d44e24,5f0c92d4c2d3a647fc3e2894,False,0.4,,,"<h2>Will the cat appear after this screen?</h2><div class=""J_key""><strong>Yes</strong> <br> (press J)</div><div class=""F_key""><strong>No</strong> <br> (press F)</div><p class=""progress""> [18/64]</br>number of points: 5</p>",,['stimuli/circle.png'],1.0,j,test,prepare,,,C+
,html-keyboard-response,68,156393,0.0-5.0-1.17,5f0c730df08fe65de0a547c0,5d44714cd36e050001d44e24,5f0c92d4c2d3a647fc3e2894,False,0.4,,1757.4499999755062,"<h2>Will the cat appear after this screen?</h2><div class=""J_key""><strong>Yes</strong> <br> (press J)</div><div class=""F_key""><strong>No</strong> <br> (press F)</div><div class=""central_stim""><img src=""stimuli/circle.png"" width=""30%"" style=""padding:2vmin""></div><p class=""progress""> [18/64]</br>number of points: 5</p>",74.0,['stimuli/circle.png'],1.0,j,test,main,1.0,,C+
,html-keyboard-response,69,158400,0.0-5.0-2.17,5f0c730df08fe65de0a547c0,5d44714cd36e050001d44e24,5f0c92d4c2d3a647fc3e2894,False,0.4,,,"<div class=""central_stim""><img src=""stimuli/cat.png"" class=""cat""></div><p class=""progress""> [18/64]</br>number of points: 6</p>",,['stimuli/circle.png'],1.0,j,test,feedback,,,C+
,html-keyboard-response,70,158905,0.0-5.0-0.18,5f0c730df08fe65de0a547c0,5d44714cd36e050001d44e24,5f0c92d4c2d3a647fc3e2894,False,0.4,,,"<h2>Will the cat appear after this screen?</h2><div class=""J_key""><strong>Yes</strong> <br> (press J)</div><div class=""F_key""><strong>No</strong> <br> (press F)</div><p class=""progress""> [19/64]</br>number of points: 6</p>",,['stimuli/O.png'],1.0,j,test,prepare,,,Q-
,html-keyboard-response,71,160378,0.0-5.0-1.18,5f0c730df08fe65de0a547c0,5d44714cd36e050001d44e24,5f0c92d4c2d3a647fc3e2894,False,0.4,,1470.209999999497,"<h2>Will the cat appear after this screen?</h2><div class=""J_key""><strong>Yes</strong> <br> (press J)</div><div class=""F_key""><strong>No</strong> <br> (press F)</div><div class=""central_stim""><img src=""stimuli/O.png"" width=""30%"" style=""padding:2vmin""></div><p class=""progress""> [19/64]</br>number of points: 6</p>",74.0,['stimuli/O.png'],1.0,j,test,main,1.0,,Q-
,html-keyboard-response,72,162386,0.0-5.0-2.18,5f0c730df08fe65de0a547c0,5d44714cd36e050001d44e24,5f0c92d4c2d3a647fc3e2894,False,0.4,,,"<div class=""central_stim""><img src=""stimuli/cat.png"" class=""cat""></div><p class=""progress""> [19/64]</br>number of points: 7</p>",,['stimuli/O.png'],1.0,j,test,feedback,,,Q-
,html-keyboard-response,73,162895,0.0-5.0-0.19,5f0c730df08fe65de0a547c0,5d44714cd36e050001d44e24,5f0c92d4c2d3a647fc3e2894,False,0.4,,,"<h2>Will the cat appear after this screen?</h2><div class=""J_key""><strong>Yes</strong> <br> (press J)</div><div class=""F_key""><strong>No</strong> <br> (press F)</div><p class=""progress""> [20/64]</br>number of points: 7</p>",,['stimuli/Q.png'],0.0,f,test,prepare,,,O+
,html-keyboard-response,74,164316,0.0-5.0-1.19,5f0c730df08fe65de0a547c0,5d44714cd36e050001d44e24,5f0c92d4c2d3a647fc3e2894,False,0.4,,1418.8299999805167,"<h2>Will the cat appear after this screen?</h2><div class=""J_key""><strong>Yes</strong> <br> (press J)</div><div class=""F_key""><strong>No</strong> <br> (press F)</div><div class=""central_stim""><img src=""stimuli/Q.png"" width=""30%"" style=""padding:2vmin""></div><p class=""progress""> [20/64]</br>number of points: 7</p>",74.0,['stimuli/Q.png'],0.0,f,test,main,0.0,,O+
,html-keyboard-response,75,166320,0.0-5.0-2.19,5f0c730df08fe65de0a547c0,5d44714cd36e050001d44e24,5f0c92d4c2d3a647fc3e2894,False,0.4,,,"<div class=""central_stim""></div><p class=""progress""> [20/64]</br>number of points: 7</p>",,['stimuli/Q.png'],0.0,f,test,feedback,,,O+
,html-keyboard-response,76,166824,0.0-5.0-0.20,5f0c730df08fe65de0a547c0,5d44714cd36e050001d44e24,5f0c92d4c2d3a647fc3e2894,False,0.4,,,"<h2>Will the cat appear after this screen?</h2><div class=""J_key""><strong>Yes</strong> <br> (press J)</div><div class=""F_key""><strong>No</strong> <br> (press F)</div><p class=""progress""> [21/64]</br>number of points: 7</p>",,['stimuli/spade.png'],1.0,j,test,prepare,,,B+
,html-keyboard-response,77,167792,0.0-5.0-1.20,5f0c730df08fe65de0a547c0,5d44714cd36e050001d44e24,5f0c92d4c2d3a647fc3e2894,False,0.4,,966.3699999800883,"<h2>Will the cat appear after this screen?</h2><div class=""J_key""><strong>Yes</strong> <br> (press J)</div><div class=""F_key""><strong>No</strong> <br> (press F)</div><div class=""central_stim""><img src=""stimuli/spade.png"" width=""30%"" style=""padding:2vmin""></div><p class=""progress""> [21/64]</br>number of points: 7</p>",74.0,['stimuli/spade.png'],1.0,j,test,main,1.0,,B+
,html-keyboard-response,78,169813,0.0-5.0-2.20,5f0c730df08fe65de0a547c0,5d44714cd36e050001d44e24,5f0c92d4c2d3a647fc3e2894,False,0.4,,,"<div class=""central_stim""><img src=""stimuli/cat.png"" class=""cat""></div><p class=""progress""> [21/64]</br>number of points: 8</p>",,['stimuli/spade.png'],1.0,j,test,feedback,,,B+
,html-keyboard-response,79,170322,0.0-5.0-0.21,5f0c730df08fe65de0a547c0,5d44714cd36e050001d44e24,5f0c92d4c2d3a647fc3e2894,False,0.4,,,"<h2>Will the cat appear after this screen?</h2><div class=""J_key""><strong>Yes</strong> <br> (press J)</div><div class=""F_key""><strong>No</strong> <br> (press F)</div><p class=""progress""> [22/64]</br>number of points: 8</p>",,['stimuli/plus.png'],0.0,f,test,prepare,,,A-
,html-keyboard-response,80,171357,0.0-5.0-1.21,5f0c730df08fe65de0a547c0,5d44714cd36e050001d44e24,5f0c92d4c2d3a647fc3e2894,False,0.4,,1033.1049999804236,"<h2>Will the cat appear after this screen?</h2><div class=""J_key""><strong>Yes</strong> <br> (press J)</div><div class=""F_key""><strong>No</strong> <br> (press F)</div><div class=""central_stim""><img src=""stimuli/plus.png"" width=""30%"" style=""padding:2vmin""></div><p class=""progress""> [22/64]</br>number of points: 8</p>",74.0,['stimuli/plus.png'],0.0,f,test,main,0.0,,A-
,html-keyboard-response,81,173360,0.0-5.0-2.21,5f0c730df08fe65de0a547c0,5d44714cd36e050001d44e24,5f0c92d4c2d3a647fc3e2894,False,0.4,,,"<div class=""central_stim""></div><p class=""progress""> [22/64]</br>number of points: 8</p>",,['stimuli/plus.png'],0.0,f,test,feedback,,,A-
,html-keyboard-response,82,173864,0.0-5.0-0.22,5f0c730df08fe65de0a547c0,5d44714cd36e050001d44e24,5f0c92d4c2d3a647fc3e2894,False,0.4,,,"<h2>Will the cat appear after this screen?</h2><div class=""J_key""><strong>Yes</strong> <br> (press J)</div><div class=""F_key""><strong>No</strong> <br> (press F)</div><p class=""progress""> [23/64]</br>number of points: 8</p>",,"['stimuli/circle.png', 'stimuli/diamond.png']",0.0,f,test,prepare,,,CD-
,html-keyboard-response,83,174630,0.0-5.0-1.22,5f0c730df08fe65de0a547c0,5d44714cd36e050001d44e24,5f0c92d4c2d3a647fc3e2894,False,0.4,,763.8699999661185,"<h2>Will the cat appear after this screen?</h2><div class=""J_key""><strong>Yes</strong> <br> (press J)</div><div class=""F_key""><strong>No</strong> <br> (press F)</div><div class=""central_stim""><img src=""stimuli/diamond.png"" width=""30%"" style=""padding:2vmin"">	<img src=""stimuli/circle.png"" width=""30%"" style=""padding:2vmin""></div><p class=""progress""> [23/64]</br>number of points: 8</p>",74.0,"['stimuli/circle.png', 'stimuli/diamond.png']",0.0,f,test,main,0.0,,CD-
,html-keyboard-response,84,176634,0.0-5.0-2.22,5f0c730df08fe65de0a547c0,5d44714cd36e050001d44e24,5f0c92d4c2d3a647fc3e2894,False,0.4,,,"<div class=""central_stim""></div><p class=""progress""> [23/64]</br>number of points: 8</p>",,"['stimuli/circle.png', 'stimuli/diamond.png']",0.0,f,test,feedback,,,CD-
,html-keyboard-response,85,177139,0.0-5.0-0.23,5f0c730df08fe65de0a547c0,5d44714cd36e050001d44e24,5f0c92d4c2d3a647fc3e2894,False,0.4,,,"<h2>Will the cat appear after this screen?</h2><div class=""J_key""><strong>Yes</strong> <br> (press J)</div><div class=""F_key""><strong>No</strong> <br> (press F)</div><p class=""progress""> [24/64]</br>number of points: 8</p>",,"['stimuli/down_facing.png', 'stimuli/clover.png']",1.0,j,test,prepare,,,EF+
,html-keyboard-response,86,177618,0.0-5.0-1.23,5f0c730df08fe65de0a547c0,5d44714cd36e050001d44e24,5f0c92d4c2d3a647fc3e2894,False,0.4,,476.82999999960884,"<h2>Will the cat appear after this screen?</h2><div class=""J_key""><strong>Yes</strong> <br> (press J)</div><div class=""F_key""><strong>No</strong> <br> (press F)</div><div class=""central_stim""><img src=""stimuli/down_facing.png"" width=""30%"" style=""padding:2vmin"">	<img src=""stimuli/clover.png"" width=""30%"" style=""padding:2vmin""></div><p class=""progress""> [24/64]</br>number of points: 8</p>",70.0,"['stimuli/down_facing.png', 'stimuli/clover.png']",1.0,j,test,main,0.0,,EF+
,html-keyboard-response,87,179627,0.0-5.0-2.23,5f0c730df08fe65de0a547c0,5d44714cd36e050001d44e24,5f0c92d4c2d3a647fc3e2894,False,0.4,,,"<div class=""central_stim""><img src=""stimuli/cat.png"" class=""cat""></div><p class=""progress""> [24/64]</br>number of points: 8</p>",,"['stimuli/down_facing.png', 'stimuli/clover.png']",1.0,j,test,feedback,,,EF+
,html-keyboard-response,88,180132,0.0-5.0-0.24,5f0c730df08fe65de0a547c0,5d44714cd36e050001d44e24,5f0c92d4c2d3a647fc3e2894,False,0.4,,,"<h2>Will the cat appear after this screen?</h2><div class=""J_key""><strong>Yes</strong> <br> (press J)</div><div class=""F_key""><strong>No</strong> <br> (press F)</div><p class=""progress""> [25/64]</br>number of points: 8</p>",,"['stimuli/circle.png', 'stimuli/diamond.png']",0.0,f,test,prepare,,,CD-
,html-keyboard-response,89,181233,0.0-5.0-1.24,5f0c730df08fe65de0a547c0,5d44714cd36e050001d44e24,5f0c92d4c2d3a647fc3e2894,False,0.4,,1098.3349999878556,"<h2>Will the cat appear after this screen?</h2><div class=""J_key""><strong>Yes</strong> <br> (press J)</div><div class=""F_key""><strong>No</strong> <br> (press F)</div><div class=""central_stim""><img src=""stimuli/diamond.png"" width=""30%"" style=""padding:2vmin"">	<img src=""stimuli/circle.png"" width=""30%"" style=""padding:2vmin""></div><p class=""progress""> [25/64]</br>number of points: 8</p>",70.0,"['stimuli/circle.png', 'stimuli/diamond.png']",0.0,f,test,main,1.0,,CD-
,html-keyboard-response,90,183239,0.0-5.0-2.24,5f0c730df08fe65de0a547c0,5d44714cd36e050001d44e24,5f0c92d4c2d3a647fc3e2894,False,0.4,,,"<div class=""central_stim""></div><p class=""progress""> [25/64]</br>number of points: 9</p>",,"['stimuli/circle.png', 'stimuli/diamond.png']",0.0,f,test,feedback,,,CD-
,html-keyboard-response,91,183745,0.0-5.0-0.25,5f0c730df08fe65de0a547c0,5d44714cd36e050001d44e24,5f0c92d4c2d3a647fc3e2894,False,0.4,,,"<h2>Will the cat appear after this screen?</h2><div class=""J_key""><strong>Yes</strong> <br> (press J)</div><div class=""F_key""><strong>No</strong> <br> (press F)</div><p class=""progress""> [26/64]</br>number of points: 9</p>",,['stimuli/plus.png'],0.0,f,test,prepare,,,A-
,html-keyboard-response,92,184849,0.0-5.0-1.25,5f0c730df08fe65de0a547c0,5d44714cd36e050001d44e24,5f0c92d4c2d3a647fc3e2894,False,0.4,,1101.9500000402331,"<h2>Will the cat appear after this screen?</h2><div class=""J_key""><strong>Yes</strong> <br> (press J)</div><div class=""F_key""><strong>No</strong> <br> (press F)</div><div class=""central_stim""><img src=""stimuli/plus.png"" width=""30%"" style=""padding:2vmin""></div><p class=""progress""> [26/64]</br>number of points: 9</p>",70.0,['stimuli/plus.png'],0.0,f,test,main,1.0,,A-
,html-keyboard-response,93,186855,0.0-5.0-2.25,5f0c730df08fe65de0a547c0,5d44714cd36e050001d44e24,5f0c92d4c2d3a647fc3e2894,False,0.4,,,"<div class=""central_stim""></div><p class=""progress""> [26/64]</br>number of points: 10</p>",,['stimuli/plus.png'],0.0,f,test,feedback,,,A-
,html-keyboard-response,94,187359,0.0-5.0-0.26,5f0c730df08fe65de0a547c0,5d44714cd36e050001d44e24,5f0c92d4c2d3a647fc3e2894,False,0.4,,,"<h2>Will the cat appear after this screen?</h2><div class=""J_key""><strong>Yes</strong> <br> (press J)</div><div class=""F_key""><strong>No</strong> <br> (press F)</div><p class=""progress""> [27/64]</br>number of points: 10</p>",,['stimuli/circle.png'],1.0,j,test,prepare,,,C+
,html-keyboard-response,95,188517,0.0-5.0-1.26,5f0c730df08fe65de0a547c0,5d44714cd36e050001d44e24,5f0c92d4c2d3a647fc3e2894,False,0.4,,1155.9999999590218,"<h2>Will the cat appear after this screen?</h2><div class=""J_key""><strong>Yes</strong> <br> (press J)</div><div class=""F_key""><strong>No</strong> <br> (press F)</div><div class=""central_stim""><img src=""stimuli/circle.png"" width=""30%"" style=""padding:2vmin""></div><p class=""progress""> [27/64]</br>number of points: 10</p>",74.0,['stimuli/circle.png'],1.0,j,test,main,1.0,,C+
,html-keyboard-response,96,190522,0.0-5.0-2.26,5f0c730df08fe65de0a547c0,5d44714cd36e050001d44e24,5f0c92d4c2d3a647fc3e2894,False,0.4,,,"<div class=""central_stim""><img src=""stimuli/cat.png"" class=""cat""></div><p class=""progress""> [27/64]</br>number of points: 11</p>",,['stimuli/circle.png'],1.0,j,test,feedback,,,C+
,html-keyboard-response,97,191026,0.0-5.0-0.27,5f0c730df08fe65de0a547c0,5d44714cd36e050001d44e24,5f0c92d4c2d3a647fc3e2894,False,0.4,,,"<h2>Will the cat appear after this screen?</h2><div class=""J_key""><strong>Yes</strong> <br> (press J)</div><div class=""F_key""><strong>No</strong> <br> (press F)</div><p class=""progress""> [28/64]</br>number of points: 11</p>",,['stimuli/Q.png'],0.0,f,test,prepare,,,O+
,html-keyboard-response,98,192626,0.0-5.0-1.27,5f0c730df08fe65de0a547c0,5d44714cd36e050001d44e24,5f0c92d4c2d3a647fc3e2894,False,0.4,,1597.7399999974295,"<h2>Will the cat appear after this screen?</h2><div class=""J_key""><strong>Yes</strong> <br> (press J)</div><div class=""F_key""><strong>No</strong> <br> (press F)</div><div class=""central_stim""><img src=""stimuli/Q.png"" width=""30%"" style=""padding:2vmin""></div><p class=""progress""> [28/64]</br>number of points: 11</p>",74.0,['stimuli/Q.png'],0.0,f,test,main,0.0,,O+
,html-keyboard-response,99,194631,0.0-5.0-2.27,5f0c730df08fe65de0a547c0,5d44714cd36e050001d44e24,5f0c92d4c2d3a647fc3e2894,False,0.4,,,"<div class=""central_stim""></div><p class=""progress""> [28/64]</br>number of points: 11</p>",,['stimuli/Q.png'],0.0,f,test,feedback,,,O+
,html-keyboard-response,100,195135,0.0-5.0-0.28,5f0c730df08fe65de0a547c0,5d44714cd36e050001d44e24,5f0c92d4c2d3a647fc3e2894,False,0.4,,,"<h2>Will the cat appear after this screen?</h2><div class=""J_key""><strong>Yes</strong> <br> (press J)</div><div class=""F_key""><strong>No</strong> <br> (press F)</div><p class=""progress""> [29/64]</br>number of points: 11</p>",,['stimuli/O.png'],1.0,j,test,prepare,,,Q-
,html-keyboard-response,101,196180,0.0-5.0-1.28,5f0c730df08fe65de0a547c0,5d44714cd36e050001d44e24,5f0c92d4c2d3a647fc3e2894,False,0.4,,1043.515000026673,"<h2>Will the cat appear after this screen?</h2><div class=""J_key""><strong>Yes</strong> <br> (press J)</div><div class=""F_key""><strong>No</strong> <br> (press F)</div><div class=""central_stim""><img src=""stimuli/O.png"" width=""30%"" style=""padding:2vmin""></div><p class=""progress""> [29/64]</br>number of points: 11</p>",70.0,['stimuli/O.png'],1.0,j,test,main,0.0,,Q-
,html-keyboard-response,102,198186,0.0-5.0-2.28,5f0c730df08fe65de0a547c0,5d44714cd36e050001d44e24,5f0c92d4c2d3a647fc3e2894,False,0.4,,,"<div class=""central_stim""><img src=""stimuli/cat.png"" class=""cat""></div><p class=""progress""> [29/64]</br>number of points: 11</p>",,['stimuli/O.png'],1.0,j,test,feedback,,,Q-
,html-keyboard-response,103,198693,0.0-5.0-0.29,5f0c730df08fe65de0a547c0,5d44714cd36e050001d44e24,5f0c92d4c2d3a647fc3e2894,False,0.4,,,"<h2>Will the cat appear after this screen?</h2><div class=""J_key""><strong>Yes</strong> <br> (press J)</div><div class=""F_key""><strong>No</strong> <br> (press F)</div><p class=""progress""> [30/64]</br>number of points: 11</p>",,['stimuli/clover.png'],0.0,f,test,prepare,,,E-
,html-keyboard-response,104,199743,0.0-5.0-1.29,5f0c730df08fe65de0a547c0,5d44714cd36e050001d44e24,5f0c92d4c2d3a647fc3e2894,False,0.4,,1048.4600000199862,"<h2>Will the cat appear after this screen?</h2><div class=""J_key""><strong>Yes</strong> <br> (press J)</div><div class=""F_key""><strong>No</strong> <br> (press F)</div><div class=""central_stim""><img src=""stimuli/clover.png"" width=""30%"" style=""padding:2vmin""></div><p class=""progress""> [30/64]</br>number of points: 11</p>",70.0,['stimuli/clover.png'],0.0,f,test,main,1.0,,E-
,html-keyboard-response,105,201750,0.0-5.0-2.29,5f0c730df08fe65de0a547c0,5d44714cd36e050001d44e24,5f0c92d4c2d3a647fc3e2894,False,0.4,,,"<div class=""central_stim""></div><p class=""progress""> [30/64]</br>number of points: 12</p>",,['stimuli/clover.png'],0.0,f,test,feedback,,,E-
,html-keyboard-response,106,202255,0.0-5.0-0.30,5f0c730df08fe65de0a547c0,5d44714cd36e050001d44e24,5f0c92d4c2d3a647fc3e2894,False,0.4,,,"<h2>Will the cat appear after this screen?</h2><div class=""J_key""><strong>Yes</strong> <br> (press J)</div><div class=""F_key""><strong>No</strong> <br> (press F)</div><p class=""progress""> [31/64]</br>number of points: 12</p>",,['stimuli/spade.png'],1.0,j,test,prepare,,,B+
,html-keyboard-response,107,203066,0.0-5.0-1.30,5f0c730df08fe65de0a547c0,5d44714cd36e050001d44e24,5f0c92d4c2d3a647fc3e2894,False,0.4,,809.3300000182353,"<h2>Will the cat appear after this screen?</h2><div class=""J_key""><strong>Yes</strong> <br> (press J)</div><div class=""F_key""><strong>No</strong> <br> (press F)</div><div class=""central_stim""><img src=""stimuli/spade.png"" width=""30%"" style=""padding:2vmin""></div><p class=""progress""> [31/64]</br>number of points: 12</p>",74.0,['stimuli/spade.png'],1.0,j,test,main,1.0,,B+
,html-keyboard-response,108,205074,0.0-5.0-2.30,5f0c730df08fe65de0a547c0,5d44714cd36e050001d44e24,5f0c92d4c2d3a647fc3e2894,False,0.4,,,"<div class=""central_stim""><img src=""stimuli/cat.png"" class=""cat""></div><p class=""progress""> [31/64]</br>number of points: 13</p>",,['stimuli/spade.png'],1.0,j,test,feedback,,,B+
,html-keyboard-response,109,205579,0.0-5.0-0.31,5f0c730df08fe65de0a547c0,5d44714cd36e050001d44e24,5f0c92d4c2d3a647fc3e2894,False,0.4,,,"<h2>Will the cat appear after this screen?</h2><div class=""J_key""><strong>Yes</strong> <br> (press J)</div><div class=""F_key""><strong>No</strong> <br> (press F)</div><p class=""progress""> [32/64]</br>number of points: 13</p>",,"['stimuli/down_facing.png', 'stimuli/clover.png']",1.0,j,test,prepare,,,EF+
,html-keyboard-response,110,206959,0.0-5.0-1.31,5f0c730df08fe65de0a547c0,5d44714cd36e050001d44e24,5f0c92d4c2d3a647fc3e2894,False,0.4,,1377.5550000136718,"<h2>Will the cat appear after this screen?</h2><div class=""J_key""><strong>Yes</strong> <br> (press J)</div><div class=""F_key""><strong>No</strong> <br> (press F)</div><div class=""central_stim""><img src=""stimuli/clover.png"" width=""30%"" style=""padding:2vmin"">	<img src=""stimuli/down_facing.png"" width=""30%"" style=""padding:2vmin""></div><p class=""progress""> [32/64]</br>number of points: 13</p>",74.0,"['stimuli/down_facing.png', 'stimuli/clover.png']",1.0,j,test,main,1.0,,EF+
,html-keyboard-response,111,208965,0.0-5.0-2.31,5f0c730df08fe65de0a547c0,5d44714cd36e050001d44e24,5f0c92d4c2d3a647fc3e2894,False,0.4,,,"<div class=""central_stim""><img src=""stimuli/cat.png"" class=""cat""></div><p class=""progress""> [32/64]</br>number of points: 14</p>",,"['stimuli/down_facing.png', 'stimuli/clover.png']",1.0,j,test,feedback,,,EF+
,instructions,112,212588,0.0-6.0,5f0c730df08fe65de0a547c0,5d44714cd36e050001d44e24,5f0c92d4c2d3a647fc3e2894,False,0.4,"[{""page_index"":0,""viewing_time"":3620.989999966696}]",3621.739999973215,,,,,,,,,,
,html-keyboard-response,113,213092,0.0-7.0-0.0,5f0c730df08fe65de0a547c0,5d44714cd36e050001d44e24,5f0c92d4c2d3a647fc3e2894,False,0.4,,,"<h2>Will the cat appear after this screen?</h2><div class=""J_key""><strong>Yes</strong> <br> (press J)</div><div class=""F_key""><strong>No</strong> <br> (press F)</div><p class=""progress""> [33/64]</br>number of points: 14</p>",,['stimuli/Q.png'],0.0,f,test,prepare,,,O+
,html-keyboard-response,114,214444,0.0-7.0-1.0,5f0c730df08fe65de0a547c0,5d44714cd36e050001d44e24,5f0c92d4c2d3a647fc3e2894,False,0.4,,1350.0199999543838,"<h2>Will the cat appear after this screen?</h2><div class=""J_key""><strong>Yes</strong> <br> (press J)</div><div class=""F_key""><strong>No</strong> <br> (press F)</div><div class=""central_stim""><img src=""stimuli/Q.png"" width=""30%"" style=""padding:2vmin""></div><p class=""progress""> [33/64]</br>number of points: 14</p>",70.0,['stimuli/Q.png'],0.0,f,test,main,1.0,,O+
,html-keyboard-response,115,216450,0.0-7.0-2.0,5f0c730df08fe65de0a547c0,5d44714cd36e050001d44e24,5f0c92d4c2d3a647fc3e2894,False,0.4,,,"<div class=""central_stim""></div><p class=""progress""> [33/64]</br>number of points: 15</p>",,['stimuli/Q.png'],0.0,f,test,feedback,,,O+
,html-keyboard-response,116,216956,0.0-7.0-0.1,5f0c730df08fe65de0a547c0,5d44714cd36e050001d44e24,5f0c92d4c2d3a647fc3e2894,False,0.4,,,"<h2>Will the cat appear after this screen?</h2><div class=""J_key""><strong>Yes</strong> <br> (press J)</div><div class=""F_key""><strong>No</strong> <br> (press F)</div><p class=""progress""> [34/64]</br>number of points: 15</p>",,['stimuli/circle.png'],1.0,j,test,prepare,,,C+
,html-keyboard-response,117,217746,0.0-7.0-1.1,5f0c730df08fe65de0a547c0,5d44714cd36e050001d44e24,5f0c92d4c2d3a647fc3e2894,False,0.4,,787.4600000213832,"<h2>Will the cat appear after this screen?</h2><div class=""J_key""><strong>Yes</strong> <br> (press J)</div><div class=""F_key""><strong>No</strong> <br> (press F)</div><div class=""central_stim""><img src=""stimuli/circle.png"" width=""30%"" style=""padding:2vmin""></div><p class=""progress""> [34/64]</br>number of points: 15</p>",74.0,['stimuli/circle.png'],1.0,j,test,main,1.0,,C+
,html-keyboard-response,118,219752,0.0-7.0-2.1,5f0c730df08fe65de0a547c0,5d44714cd36e050001d44e24,5f0c92d4c2d3a647fc3e2894,False,0.4,,,"<div class=""central_stim""><img src=""stimuli/cat.png"" class=""cat""></div><p class=""progress""> [34/64]</br>number of points: 16</p>",,['stimuli/circle.png'],1.0,j,test,feedback,,,C+
,html-keyboard-response,119,220257,0.0-7.0-0.2,5f0c730df08fe65de0a547c0,5d44714cd36e050001d44e24,5f0c92d4c2d3a647fc3e2894,False,0.4,,,"<h2>Will the cat appear after this screen?</h2><div class=""J_key""><strong>Yes</strong> <br> (press J)</div><div class=""F_key""><strong>No</strong> <br> (press F)</div><p class=""progress""> [35/64]</br>number of points: 16</p>",,['stimuli/plus.png'],0.0,f,test,prepare,,,A-
,html-keyboard-response,120,222505,0.0-7.0-1.2,5f0c730df08fe65de0a547c0,5d44714cd36e050001d44e24,5f0c92d4c2d3a647fc3e2894,False,0.4,,2250.130000000354,"<h2>Will the cat appear after this screen?</h2><div class=""J_key""><strong>Yes</strong> <br> (press J)</div><div class=""F_key""><strong>No</strong> <br> (press F)</div><div class=""central_stim""><img src=""stimuli/plus.png"" width=""30%"" style=""padding:2vmin""></div><p class=""progress""> [35/64]</br>number of points: 16</p>",74.0,['stimuli/plus.png'],0.0,f,test,main,0.0,,A-
,html-keyboard-response,121,224516,0.0-7.0-2.2,5f0c730df08fe65de0a547c0,5d44714cd36e050001d44e24,5f0c92d4c2d3a647fc3e2894,False,0.4,,,"<div class=""central_stim""></div><p class=""progress""> [35/64]</br>number of points: 16</p>",,['stimuli/plus.png'],0.0,f,test,feedback,,,A-
,html-keyboard-response,122,225019,0.0-7.0-0.3,5f0c730df08fe65de0a547c0,5d44714cd36e050001d44e24,5f0c92d4c2d3a647fc3e2894,False,0.4,,,"<h2>Will the cat appear after this screen?</h2><div class=""J_key""><strong>Yes</strong> <br> (press J)</div><div class=""F_key""><strong>No</strong> <br> (press F)</div><p class=""progress""> [36/64]</br>number of points: 16</p>",,"['stimuli/circle.png', 'stimuli/diamond.png']",0.0,f,test,prepare,,,CD-
,html-keyboard-response,123,226234,0.0-7.0-1.3,5f0c730df08fe65de0a547c0,5d44714cd36e050001d44e24,5f0c92d4c2d3a647fc3e2894,False,0.4,,1213.1250000093132,"<h2>Will the cat appear after this screen?</h2><div class=""J_key""><strong>Yes</strong> <br> (press J)</div><div class=""F_key""><strong>No</strong> <br> (press F)</div><div class=""central_stim""><img src=""stimuli/diamond.png"" width=""30%"" style=""padding:2vmin"">	<img src=""stimuli/circle.png"" width=""30%"" style=""padding:2vmin""></div><p class=""progress""> [36/64]</br>number of points: 16</p>",70.0,"['stimuli/circle.png', 'stimuli/diamond.png']",0.0,f,test,main,1.0,,CD-
,html-keyboard-response,124,228243,0.0-7.0-2.3,5f0c730df08fe65de0a547c0,5d44714cd36e050001d44e24,5f0c92d4c2d3a647fc3e2894,False,0.4,,,"<div class=""central_stim""></div><p class=""progress""> [36/64]</br>number of points: 17</p>",,"['stimuli/circle.png', 'stimuli/diamond.png']",0.0,f,test,feedback,,,CD-
,html-keyboard-response,125,228747,0.0-7.0-0.4,5f0c730df08fe65de0a547c0,5d44714cd36e050001d44e24,5f0c92d4c2d3a647fc3e2894,False,0.4,,,"<h2>Will the cat appear after this screen?</h2><div class=""J_key""><strong>Yes</strong> <br> (press J)</div><div class=""F_key""><strong>No</strong> <br> (press F)</div><p class=""progress""> [37/64]</br>number of points: 17</p>",,"['stimuli/down_facing.png', 'stimuli/clover.png']",1.0,j,test,prepare,,,EF+
,html-keyboard-response,126,229844,0.0-7.0-1.4,5f0c730df08fe65de0a547c0,5d44714cd36e050001d44e24,5f0c92d4c2d3a647fc3e2894,False,0.4,,1094.8950000456534,"<h2>Will the cat appear after this screen?</h2><div class=""J_key""><strong>Yes</strong> <br> (press J)</div><div class=""F_key""><strong>No</strong> <br> (press F)</div><div class=""central_stim""><img src=""stimuli/clover.png"" width=""30%"" style=""padding:2vmin"">	<img src=""stimuli/down_facing.png"" width=""30%"" style=""padding:2vmin""></div><p class=""progress""> [37/64]</br>number of points: 17</p>",74.0,"['stimuli/down_facing.png', 'stimuli/clover.png']",1.0,j,test,main,1.0,,EF+
,html-keyboard-response,127,231851,0.0-7.0-2.4,5f0c730df08fe65de0a547c0,5d44714cd36e050001d44e24,5f0c92d4c2d3a647fc3e2894,False,0.4,,,"<div class=""central_stim""><img src=""stimuli/cat.png"" class=""cat""></div><p class=""progress""> [37/64]</br>number of points: 18</p>",,"['stimuli/down_facing.png', 'stimuli/clover.png']",1.0,j,test,feedback,,,EF+
,html-keyboard-response,128,232356,0.0-7.0-0.5,5f0c730df08fe65de0a547c0,5d44714cd36e050001d44e24,5f0c92d4c2d3a647fc3e2894,False,0.4,,,"<h2>Will the cat appear after this screen?</h2><div class=""J_key""><strong>Yes</strong> <br> (press J)</div><div class=""F_key""><strong>No</strong> <br> (press F)</div><p class=""progress""> [38/64]</br>number of points: 18</p>",,['stimuli/spade.png'],1.0,j,test,prepare,,,B+
,html-keyboard-response,129,235165,0.0-7.0-1.5,5f0c730df08fe65de0a547c0,5d44714cd36e050001d44e24,5f0c92d4c2d3a647fc3e2894,False,0.4,,2807.3800000129268,"<h2>Will the cat appear after this screen?</h2><div class=""J_key""><strong>Yes</strong> <br> (press J)</div><div class=""F_key""><strong>No</strong> <br> (press F)</div><div class=""central_stim""><img src=""stimuli/spade.png"" width=""30%"" style=""padding:2vmin""></div><p class=""progress""> [38/64]</br>number of points: 18</p>",74.0,['stimuli/spade.png'],1.0,j,test,main,1.0,,B+
,html-keyboard-response,130,237171,0.0-7.0-2.5,5f0c730df08fe65de0a547c0,5d44714cd36e050001d44e24,5f0c92d4c2d3a647fc3e2894,False,0.4,,,"<div class=""central_stim""><img src=""stimuli/cat.png"" class=""cat""></div><p class=""progress""> [38/64]</br>number of points: 19</p>",,['stimuli/spade.png'],1.0,j,test,feedback,,,B+
,html-keyboard-response,131,237680,0.0-7.0-0.6,5f0c730df08fe65de0a547c0,5d44714cd36e050001d44e24,5f0c92d4c2d3a647fc3e2894,False,0.4,,,"<h2>Will the cat appear after this screen?</h2><div class=""J_key""><strong>Yes</strong> <br> (press J)</div><div class=""F_key""><strong>No</strong> <br> (press F)</div><p class=""progress""> [39/64]</br>number of points: 19</p>",,['stimuli/O.png'],1.0,j,test,prepare,,,Q-
,html-keyboard-response,132,238597,0.0-7.0-1.6,5f0c730df08fe65de0a547c0,5d44714cd36e050001d44e24,5f0c92d4c2d3a647fc3e2894,False,0.4,,916.239999991376,"<h2>Will the cat appear after this screen?</h2><div class=""J_key""><strong>Yes</strong> <br> (press J)</div><div class=""F_key""><strong>No</strong> <br> (press F)</div><div class=""central_stim""><img src=""stimuli/O.png"" width=""30%"" style=""padding:2vmin""></div><p class=""progress""> [39/64]</br>number of points: 19</p>",70.0,['stimuli/O.png'],1.0,j,test,main,0.0,,Q-
,html-keyboard-response,133,240601,0.0-7.0-2.6,5f0c730df08fe65de0a547c0,5d44714cd36e050001d44e24,5f0c92d4c2d3a647fc3e2894,False,0.4,,,"<div class=""central_stim""><img src=""stimuli/cat.png"" class=""cat""></div><p class=""progress""> [39/64]</br>number of points: 19</p>",,['stimuli/O.png'],1.0,j,test,feedback,,,Q-
,html-keyboard-response,134,241106,0.0-7.0-0.7,5f0c730df08fe65de0a547c0,5d44714cd36e050001d44e24,5f0c92d4c2d3a647fc3e2894,False,0.4,,,"<h2>Will the cat appear after this screen?</h2><div class=""J_key""><strong>Yes</strong> <br> (press J)</div><div class=""F_key""><strong>No</strong> <br> (press F)</div><p class=""progress""> [40/64]</br>number of points: 19</p>",,['stimuli/clover.png'],0.0,f,test,prepare,,,E-
,html-keyboard-response,135,241930,0.0-7.0-1.7,5f0c730df08fe65de0a547c0,5d44714cd36e050001d44e24,5f0c92d4c2d3a647fc3e2894,False,0.4,,822.0299999811687,"<h2>Will the cat appear after this screen?</h2><div class=""J_key""><strong>Yes</strong> <br> (press J)</div><div class=""F_key""><strong>No</strong> <br> (press F)</div><div class=""central_stim""><img src=""stimuli/clover.png"" width=""30%"" style=""padding:2vmin""></div><p class=""progress""> [40/64]</br>number of points: 19</p>",70.0,['stimuli/clover.png'],0.0,f,test,main,1.0,,E-
,html-keyboard-response,136,243937,0.0-7.0-2.7,5f0c730df08fe65de0a547c0,5d44714cd36e050001d44e24,5f0c92d4c2d3a647fc3e2894,False,0.4,,,"<div class=""central_stim""></div><p class=""progress""> [40/64]</br>number of points: 20</p>",,['stimuli/clover.png'],0.0,f,test,feedback,,,E-
,html-keyboard-response,137,244442,0.0-7.0-0.8,5f0c730df08fe65de0a547c0,5d44714cd36e050001d44e24,5f0c92d4c2d3a647fc3e2894,False,0.4,,,"<h2>Will the cat appear after this screen?</h2><div class=""J_key""><strong>Yes</strong> <br> (press J)</div><div class=""F_key""><strong>No</strong> <br> (press F)</div><p class=""progress""> [41/64]</br>number of points: 20</p>",,['stimuli/spade.png'],1.0,j,test,prepare,,,B+
,html-keyboard-response,138,246800,0.0-7.0-1.8,5f0c730df08fe65de0a547c0,5d44714cd36e050001d44e24,5f0c92d4c2d3a647fc3e2894,False,0.4,,2356.099999975413,"<h2>Will the cat appear after this screen?</h2><div class=""J_key""><strong>Yes</strong> <br> (press J)</div><div class=""F_key""><strong>No</strong> <br> (press F)</div><div class=""central_stim""><img src=""stimuli/spade.png"" width=""30%"" style=""padding:2vmin""></div><p class=""progress""> [41/64]</br>number of points: 20</p>",74.0,['stimuli/spade.png'],1.0,j,test,main,1.0,,B+
,html-keyboard-response,139,248806,0.0-7.0-2.8,5f0c730df08fe65de0a547c0,5d44714cd36e050001d44e24,5f0c92d4c2d3a647fc3e2894,False,0.4,,,"<div class=""central_stim""><img src=""stimuli/cat.png"" class=""cat""></div><p class=""progress""> [41/64]</br>number of points: 21</p>",,['stimuli/spade.png'],1.0,j,test,feedback,,,B+
,html-keyboard-response,140,249311,0.0-7.0-0.9,5f0c730df08fe65de0a547c0,5d44714cd36e050001d44e24,5f0c92d4c2d3a647fc3e2894,False,0.4,,,"<h2>Will the cat appear after this screen?</h2><div class=""J_key""><strong>Yes</strong> <br> (press J)</div><div class=""F_key""><strong>No</strong> <br> (press F)</div><p class=""progress""> [42/64]</br>number of points: 21</p>",,['stimuli/circle.png'],1.0,j,test,prepare,,,C+
,html-keyboard-response,141,249831,0.0-7.0-1.9,5f0c730df08fe65de0a547c0,5d44714cd36e050001d44e24,5f0c92d4c2d3a647fc3e2894,False,0.4,,518.355000007432,"<h2>Will the cat appear after this screen?</h2><div class=""J_key""><strong>Yes</strong> <br> (press J)</div><div class=""F_key""><strong>No</strong> <br> (press F)</div><div class=""central_stim""><img src=""stimuli/circle.png"" width=""30%"" style=""padding:2vmin""></div><p class=""progress""> [42/64]</br>number of points: 21</p>",74.0,['stimuli/circle.png'],1.0,j,test,main,1.0,,C+
,html-keyboard-response,142,251835,0.0-7.0-2.9,5f0c730df08fe65de0a547c0,5d44714cd36e050001d44e24,5f0c92d4c2d3a647fc3e2894,False,0.4,,,"<div class=""central_stim""><img src=""stimuli/cat.png"" class=""cat""></div><p class=""progress""> [42/64]</br>number of points: 22</p>",,['stimuli/circle.png'],1.0,j,test,feedback,,,C+
,html-keyboard-response,143,252341,0.0-7.0-0.10,5f0c730df08fe65de0a547c0,5d44714cd36e050001d44e24,5f0c92d4c2d3a647fc3e2894,False,0.4,,,"<h2>Will the cat appear after this screen?</h2><div class=""J_key""><strong>Yes</strong> <br> (press J)</div><div class=""F_key""><strong>No</strong> <br> (press F)</div><p class=""progress""> [43/64]</br>number of points: 22</p>",,['stimuli/Q.png'],0.0,f,test,prepare,,,O+
,html-keyboard-response,144,254152,0.0-7.0-1.10,5f0c730df08fe65de0a547c0,5d44714cd36e050001d44e24,5f0c92d4c2d3a647fc3e2894,False,0.4,,1809.914999990724,"<h2>Will the cat appear after this screen?</h2><div class=""J_key""><strong>Yes</strong> <br> (press J)</div><div class=""F_key""><strong>No</strong> <br> (press F)</div><div class=""central_stim""><img src=""stimuli/Q.png"" width=""30%"" style=""padding:2vmin""></div><p class=""progress""> [43/64]</br>number of points: 22</p>",70.0,['stimuli/Q.png'],0.0,f,test,main,1.0,,O+
,html-keyboard-response,145,256157,0.0-7.0-2.10,5f0c730df08fe65de0a547c0,5d44714cd36e050001d44e24,5f0c92d4c2d3a647fc3e2894,False,0.4,,,"<div class=""central_stim""></div><p class=""progress""> [43/64]</br>number of points: 23</p>",,['stimuli/Q.png'],0.0,f,test,feedback,,,O+
,html-keyboard-response,146,256662,0.0-7.0-0.11,5f0c730df08fe65de0a547c0,5d44714cd36e050001d44e24,5f0c92d4c2d3a647fc3e2894,False,0.4,,,"<h2>Will the cat appear after this screen?</h2><div class=""J_key""><strong>Yes</strong> <br> (press J)</div><div class=""F_key""><strong>No</strong> <br> (press F)</div><p class=""progress""> [44/64]</br>number of points: 23</p>",,"['stimuli/circle.png', 'stimuli/diamond.png']",0.0,f,test,prepare,,,CD-
,html-keyboard-response,147,259130,0.0-7.0-1.11,5f0c730df08fe65de0a547c0,5d44714cd36e050001d44e24,5f0c92d4c2d3a647fc3e2894,False,0.4,,2466.0700000240467,"<h2>Will the cat appear after this screen?</h2><div class=""J_key""><strong>Yes</strong> <br> (press J)</div><div class=""F_key""><strong>No</strong> <br> (press F)</div><div class=""central_stim""><img src=""stimuli/diamond.png"" width=""30%"" style=""padding:2vmin"">	<img src=""stimuli/circle.png"" width=""30%"" style=""padding:2vmin""></div><p class=""progress""> [44/64]</br>number of points: 23</p>",74.0,"['stimuli/circle.png', 'stimuli/diamond.png']",0.0,f,test,main,0.0,,CD-
,html-keyboard-response,148,261138,0.0-7.0-2.11,5f0c730df08fe65de0a547c0,5d44714cd36e050001d44e24,5f0c92d4c2d3a647fc3e2894,False,0.4,,,"<div class=""central_stim""></div><p class=""progress""> [44/64]</br>number of points: 23</p>",,"['stimuli/circle.png', 'stimuli/diamond.png']",0.0,f,test,feedback,,,CD-
,html-keyboard-response,149,261644,0.0-7.0-0.12,5f0c730df08fe65de0a547c0,5d44714cd36e050001d44e24,5f0c92d4c2d3a647fc3e2894,False,0.4,,,"<h2>Will the cat appear after this screen?</h2><div class=""J_key""><strong>Yes</strong> <br> (press J)</div><div class=""F_key""><strong>No</strong> <br> (press F)</div><p class=""progress""> [45/64]</br>number of points: 23</p>",,['stimuli/clover.png'],0.0,f,test,prepare,,,E-
,html-keyboard-response,150,262537,0.0-7.0-1.12,5f0c730df08fe65de0a547c0,5d44714cd36e050001d44e24,5f0c92d4c2d3a647fc3e2894,False,0.4,,891.2200000486337,"<h2>Will the cat appear after this screen?</h2><div class=""J_key""><strong>Yes</strong> <br> (press J)</div><div class=""F_key""><strong>No</strong> <br> (press F)</div><div class=""central_stim""><img src=""stimuli/clover.png"" width=""30%"" style=""padding:2vmin""></div><p class=""progress""> [45/64]</br>number of points: 23</p>",70.0,['stimuli/clover.png'],0.0,f,test,main,1.0,,E-
,html-keyboard-response,151,264544,0.0-7.0-2.12,5f0c730df08fe65de0a547c0,5d44714cd36e050001d44e24,5f0c92d4c2d3a647fc3e2894,False,0.4,,,"<div class=""central_stim""></div><p class=""progress""> [45/64]</br>number of points: 24</p>",,['stimuli/clover.png'],0.0,f,test,feedback,,,E-
,html-keyboard-response,152,265050,0.0-7.0-0.13,5f0c730df08fe65de0a547c0,5d44714cd36e050001d44e24,5f0c92d4c2d3a647fc3e2894,False,0.4,,,"<h2>Will the cat appear after this screen?</h2><div class=""J_key""><strong>Yes</strong> <br> (press J)</div><div class=""F_key""><strong>No</strong> <br> (press F)</div><p class=""progress""> [46/64]</br>number of points: 24</p>",,"['stimuli/down_facing.png', 'stimuli/clover.png']",1.0,j,test,prepare,,,EF+
,html-keyboard-response,153,266072,0.0-7.0-1.13,5f0c730df08fe65de0a547c0,5d44714cd36e050001d44e24,5f0c92d4c2d3a647fc3e2894,False,0.4,,1019.8450000025332,"<h2>Will the cat appear after this screen?</h2><div class=""J_key""><strong>Yes</strong> <br> (press J)</div><div class=""F_key""><strong>No</strong> <br> (press F)</div><div class=""central_stim""><img src=""stimuli/clover.png"" width=""30%"" style=""padding:2vmin"">	<img src=""stimuli/down_facing.png"" width=""30%"" style=""padding:2vmin""></div><p class=""progress""> [46/64]</br>number of points: 24</p>",74.0,"['stimuli/down_facing.png', 'stimuli/clover.png']",1.0,j,test,main,1.0,,EF+
,html-keyboard-response,154,268076,0.0-7.0-2.13,5f0c730df08fe65de0a547c0,5d44714cd36e050001d44e24,5f0c92d4c2d3a647fc3e2894,False,0.4,,,"<div class=""central_stim""><img src=""stimuli/cat.png"" class=""cat""></div><p class=""progress""> [46/64]</br>number of points: 25</p>",,"['stimuli/down_facing.png', 'stimuli/clover.png']",1.0,j,test,feedback,,,EF+
,html-keyboard-response,155,268584,0.0-7.0-0.14,5f0c730df08fe65de0a547c0,5d44714cd36e050001d44e24,5f0c92d4c2d3a647fc3e2894,False,0.4,,,"<h2>Will the cat appear after this screen?</h2><div class=""J_key""><strong>Yes</strong> <br> (press J)</div><div class=""F_key""><strong>No</strong> <br> (press F)</div><p class=""progress""> [47/64]</br>number of points: 25</p>",,['stimuli/plus.png'],0.0,f,test,prepare,,,A-
,html-keyboard-response,156,270161,0.0-7.0-1.14,5f0c730df08fe65de0a547c0,5d44714cd36e050001d44e24,5f0c92d4c2d3a647fc3e2894,False,0.4,,1575.1400000299327,"<h2>Will the cat appear after this screen?</h2><div class=""J_key""><strong>Yes</strong> <br> (press J)</div><div class=""F_key""><strong>No</strong> <br> (press F)</div><div class=""central_stim""><img src=""stimuli/plus.png"" width=""30%"" style=""padding:2vmin""></div><p class=""progress""> [47/64]</br>number of points: 25</p>",74.0,['stimuli/plus.png'],0.0,f,test,main,0.0,,A-
,html-keyboard-response,157,272171,0.0-7.0-2.14,5f0c730df08fe65de0a547c0,5d44714cd36e050001d44e24,5f0c92d4c2d3a647fc3e2894,False,0.4,,,"<div class=""central_stim""></div><p class=""progress""> [47/64]</br>number of points: 25</p>",,['stimuli/plus.png'],0.0,f,test,feedback,,,A-
,html-keyboard-response,158,272675,0.0-7.0-0.15,5f0c730df08fe65de0a547c0,5d44714cd36e050001d44e24,5f0c92d4c2d3a647fc3e2894,False,0.4,,,"<h2>Will the cat appear after this screen?</h2><div class=""J_key""><strong>Yes</strong> <br> (press J)</div><div class=""F_key""><strong>No</strong> <br> (press F)</div><p class=""progress""> [48/64]</br>number of points: 25</p>",,['stimuli/O.png'],1.0,j,test,prepare,,,Q-
,html-keyboard-response,159,273304,0.0-7.0-1.15,5f0c730df08fe65de0a547c0,5d44714cd36e050001d44e24,5f0c92d4c2d3a647fc3e2894,False,0.4,,626.700000022538,"<h2>Will the cat appear after this screen?</h2><div class=""J_key""><strong>Yes</strong> <br> (press J)</div><div class=""F_key""><strong>No</strong> <br> (press F)</div><div class=""central_stim""><img src=""stimuli/O.png"" width=""30%"" style=""padding:2vmin""></div><p class=""progress""> [48/64]</br>number of points: 25</p>",74.0,['stimuli/O.png'],1.0,j,test,main,1.0,,Q-
,html-keyboard-response,160,275307,0.0-7.0-2.15,5f0c730df08fe65de0a547c0,5d44714cd36e050001d44e24,5f0c92d4c2d3a647fc3e2894,False,0.4,,,"<div class=""central_stim""><img src=""stimuli/cat.png"" class=""cat""></div><p class=""progress""> [48/64]</br>number of points: 26</p>",,['stimuli/O.png'],1.0,j,test,feedback,,,Q-
,html-keyboard-response,161,275814,0.0-7.0-0.16,5f0c730df08fe65de0a547c0,5d44714cd36e050001d44e24,5f0c92d4c2d3a647fc3e2894,False,0.4,,,"<h2>Will the cat appear after this screen?</h2><div class=""J_key""><strong>Yes</strong> <br> (press J)</div><div class=""F_key""><strong>No</strong> <br> (press F)</div><p class=""progress""> [49/64]</br>number of points: 26</p>",,['stimuli/circle.png'],1.0,j,test,prepare,,,C+
,html-keyboard-response,162,276352,0.0-7.0-1.16,5f0c730df08fe65de0a547c0,5d44714cd36e050001d44e24,5f0c92d4c2d3a647fc3e2894,False,0.4,,536.5350000211038,"<h2>Will the cat appear after this screen?</h2><div class=""J_key""><strong>Yes</strong> <br> (press J)</div><div class=""F_key""><strong>No</strong> <br> (press F)</div><div class=""central_stim""><img src=""stimuli/circle.png"" width=""30%"" style=""padding:2vmin""></div><p class=""progress""> [49/64]</br>number of points: 26</p>",74.0,['stimuli/circle.png'],1.0,j,test,main,1.0,,C+
,html-keyboard-response,163,278355,0.0-7.0-2.16,5f0c730df08fe65de0a547c0,5d44714cd36e050001d44e24,5f0c92d4c2d3a647fc3e2894,False,0.4,,,"<div class=""central_stim""><img src=""stimuli/cat.png"" class=""cat""></div><p class=""progress""> [49/64]</br>number of points: 27</p>",,['stimuli/circle.png'],1.0,j,test,feedback,,,C+
,html-keyboard-response,164,278859,0.0-7.0-0.17,5f0c730df08fe65de0a547c0,5d44714cd36e050001d44e24,5f0c92d4c2d3a647fc3e2894,False,0.4,,,"<h2>Will the cat appear after this screen?</h2><div class=""J_key""><strong>Yes</strong> <br> (press J)</div><div class=""F_key""><strong>No</strong> <br> (press F)</div><p class=""progress""> [50/64]</br>number of points: 27</p>",,['stimuli/spade.png'],1.0,j,test,prepare,,,B+
,html-keyboard-response,165,280421,0.0-7.0-1.17,5f0c730df08fe65de0a547c0,5d44714cd36e050001d44e24,5f0c92d4c2d3a647fc3e2894,False,0.4,,1560.4950000415556,"<h2>Will the cat appear after this screen?</h2><div class=""J_key""><strong>Yes</strong> <br> (press J)</div><div class=""F_key""><strong>No</strong> <br> (press F)</div><div class=""central_stim""><img src=""stimuli/spade.png"" width=""30%"" style=""padding:2vmin""></div><p class=""progress""> [50/64]</br>number of points: 27</p>",74.0,['stimuli/spade.png'],1.0,j,test,main,1.0,,B+
,html-keyboard-response,166,282423,0.0-7.0-2.17,5f0c730df08fe65de0a547c0,5d44714cd36e050001d44e24,5f0c92d4c2d3a647fc3e2894,False,0.4,,,"<div class=""central_stim""><img src=""stimuli/cat.png"" class=""cat""></div><p class=""progress""> [50/64]</br>number of points: 28</p>",,['stimuli/spade.png'],1.0,j,test,feedback,,,B+
,html-keyboard-response,167,282935,0.0-7.0-0.18,5f0c730df08fe65de0a547c0,5d44714cd36e050001d44e24,5f0c92d4c2d3a647fc3e2894,False,0.4,,,"<h2>Will the cat appear after this screen?</h2><div class=""J_key""><strong>Yes</strong> <br> (press J)</div><div class=""F_key""><strong>No</strong> <br> (press F)</div><p class=""progress""> [51/64]</br>number of points: 28</p>",,['stimuli/plus.png'],0.0,f,test,prepare,,,A-
,html-keyboard-response,168,283851,0.0-7.0-1.18,5f0c730df08fe65de0a547c0,5d44714cd36e050001d44e24,5f0c92d4c2d3a647fc3e2894,False,0.4,,914.1599999857135,"<h2>Will the cat appear after this screen?</h2><div class=""J_key""><strong>Yes</strong> <br> (press J)</div><div class=""F_key""><strong>No</strong> <br> (press F)</div><div class=""central_stim""><img src=""stimuli/plus.png"" width=""30%"" style=""padding:2vmin""></div><p class=""progress""> [51/64]</br>number of points: 28</p>",70.0,['stimuli/plus.png'],0.0,f,test,main,1.0,,A-
,html-keyboard-response,169,285859,0.0-7.0-2.18,5f0c730df08fe65de0a547c0,5d44714cd36e050001d44e24,5f0c92d4c2d3a647fc3e2894,False,0.4,,,"<div class=""central_stim""></div><p class=""progress""> [51/64]</br>number of points: 29</p>",,['stimuli/plus.png'],0.0,f,test,feedback,,,A-
,html-keyboard-response,170,286367,0.0-7.0-0.19,5f0c730df08fe65de0a547c0,5d44714cd36e050001d44e24,5f0c92d4c2d3a647fc3e2894,False,0.4,,,"<h2>Will the cat appear after this screen?</h2><div class=""J_key""><strong>Yes</strong> <br> (press J)</div><div class=""F_key""><strong>No</strong> <br> (press F)</div><p class=""progress""> [52/64]</br>number of points: 29</p>",,['stimuli/O.png'],1.0,j,test,prepare,,,Q-
,html-keyboard-response,171,286928,0.0-7.0-1.19,5f0c730df08fe65de0a547c0,5d44714cd36e050001d44e24,5f0c92d4c2d3a647fc3e2894,False,0.4,,559.2850000248291,"<h2>Will the cat appear after this screen?</h2><div class=""J_key""><strong>Yes</strong> <br> (press J)</div><div class=""F_key""><strong>No</strong> <br> (press F)</div><div class=""central_stim""><img src=""stimuli/O.png"" width=""30%"" style=""padding:2vmin""></div><p class=""progress""> [52/64]</br>number of points: 29</p>",74.0,['stimuli/O.png'],1.0,j,test,main,1.0,,Q-
,html-keyboard-response,172,288938,0.0-7.0-2.19,5f0c730df08fe65de0a547c0,5d44714cd36e050001d44e24,5f0c92d4c2d3a647fc3e2894,False,0.4,,,"<div class=""central_stim""><img src=""stimuli/cat.png"" class=""cat""></div><p class=""progress""> [52/64]</br>number of points: 30</p>",,['stimuli/O.png'],1.0,j,test,feedback,,,Q-
,html-keyboard-response,173,289444,0.0-7.0-0.20,5f0c730df08fe65de0a547c0,5d44714cd36e050001d44e24,5f0c92d4c2d3a647fc3e2894,False,0.4,,,"<h2>Will the cat appear after this screen?</h2><div class=""J_key""><strong>Yes</strong> <br> (press J)</div><div class=""F_key""><strong>No</strong> <br> (press F)</div><p class=""progress""> [53/64]</br>number of points: 30</p>",,"['stimuli/down_facing.png', 'stimuli/clover.png']",1.0,j,test,prepare,,,EF+
,html-keyboard-response,174,290746,0.0-7.0-1.20,5f0c730df08fe65de0a547c0,5d44714cd36e050001d44e24,5f0c92d4c2d3a647fc3e2894,False,0.4,,1299.7899999609217,"<h2>Will the cat appear after this screen?</h2><div class=""J_key""><strong>Yes</strong> <br> (press J)</div><div class=""F_key""><strong>No</strong> <br> (press F)</div><div class=""central_stim""><img src=""stimuli/clover.png"" width=""30%"" style=""padding:2vmin"">	<img src=""stimuli/down_facing.png"" width=""30%"" style=""padding:2vmin""></div><p class=""progress""> [53/64]</br>number of points: 30</p>",74.0,"['stimuli/down_facing.png', 'stimuli/clover.png']",1.0,j,test,main,1.0,,EF+
,html-keyboard-response,175,292752,0.0-7.0-2.20,5f0c730df08fe65de0a547c0,5d44714cd36e050001d44e24,5f0c92d4c2d3a647fc3e2894,False,0.4,,,"<div class=""central_stim""><img src=""stimuli/cat.png"" class=""cat""></div><p class=""progress""> [53/64]</br>number of points: 31</p>",,"['stimuli/down_facing.png', 'stimuli/clover.png']",1.0,j,test,feedback,,,EF+
,html-keyboard-response,176,293261,0.0-7.0-0.21,5f0c730df08fe65de0a547c0,5d44714cd36e050001d44e24,5f0c92d4c2d3a647fc3e2894,False,0.4,,,"<h2>Will the cat appear after this screen?</h2><div class=""J_key""><strong>Yes</strong> <br> (press J)</div><div class=""F_key""><strong>No</strong> <br> (press F)</div><p class=""progress""> [54/64]</br>number of points: 31</p>",,['stimuli/clover.png'],0.0,f,test,prepare,,,E-
,html-keyboard-response,177,294071,0.0-7.0-1.21,5f0c730df08fe65de0a547c0,5d44714cd36e050001d44e24,5f0c92d4c2d3a647fc3e2894,False,0.4,,807.8199999872595,"<h2>Will the cat appear after this screen?</h2><div class=""J_key""><strong>Yes</strong> <br> (press J)</div><div class=""F_key""><strong>No</strong> <br> (press F)</div><div class=""central_stim""><img src=""stimuli/clover.png"" width=""30%"" style=""padding:2vmin""></div><p class=""progress""> [54/64]</br>number of points: 31</p>",70.0,['stimuli/clover.png'],0.0,f,test,main,1.0,,E-
,html-keyboard-response,178,296074,0.0-7.0-2.21,5f0c730df08fe65de0a547c0,5d44714cd36e050001d44e24,5f0c92d4c2d3a647fc3e2894,False,0.4,,,"<div class=""central_stim""></div><p class=""progress""> [54/64]</br>number of points: 32</p>",,['stimuli/clover.png'],0.0,f,test,feedback,,,E-
,html-keyboard-response,179,296579,0.0-7.0-0.22,5f0c730df08fe65de0a547c0,5d44714cd36e050001d44e24,5f0c92d4c2d3a647fc3e2894,False,0.4,,,"<h2>Will the cat appear after this screen?</h2><div class=""J_key""><strong>Yes</strong> <br> (press J)</div><div class=""F_key""><strong>No</strong> <br> (press F)</div><p class=""progress""> [55/64]</br>number of points: 32</p>",,"['stimuli/circle.png', 'stimuli/diamond.png']",0.0,f,test,prepare,,,CD-
,html-keyboard-response,180,298172,0.0-7.0-1.22,5f0c730df08fe65de0a547c0,5d44714cd36e050001d44e24,5f0c92d4c2d3a647fc3e2894,False,0.4,,1591.2099999841303,"<h2>Will the cat appear after this screen?</h2><div class=""J_key""><strong>Yes</strong> <br> (press J)</div><div class=""F_key""><strong>No</strong> <br> (press F)</div><div class=""central_stim""><img src=""stimuli/circle.png"" width=""30%"" style=""padding:2vmin"">	<img src=""stimuli/diamond.png"" width=""30%"" style=""padding:2vmin""></div><p class=""progress""> [55/64]</br>number of points: 32</p>",74.0,"['stimuli/circle.png', 'stimuli/diamond.png']",0.0,f,test,main,0.0,,CD-
,html-keyboard-response,181,300178,0.0-7.0-2.22,5f0c730df08fe65de0a547c0,5d44714cd36e050001d44e24,5f0c92d4c2d3a647fc3e2894,False,0.4,,,"<div class=""central_stim""></div><p class=""progress""> [55/64]</br>number of points: 32</p>",,"['stimuli/circle.png', 'stimuli/diamond.png']",0.0,f,test,feedback,,,CD-
,html-keyboard-response,182,300683,0.0-7.0-0.23,5f0c730df08fe65de0a547c0,5d44714cd36e050001d44e24,5f0c92d4c2d3a647fc3e2894,False,0.4,,,"<h2>Will the cat appear after this screen?</h2><div class=""J_key""><strong>Yes</strong> <br> (press J)</div><div class=""F_key""><strong>No</strong> <br> (press F)</div><p class=""progress""> [56/64]</br>number of points: 32</p>",,['stimuli/Q.png'],0.0,f,test,prepare,,,O+
,html-keyboard-response,183,301406,0.0-7.0-1.23,5f0c730df08fe65de0a547c0,5d44714cd36e050001d44e24,5f0c92d4c2d3a647fc3e2894,False,0.4,,721.2450000224635,"<h2>Will the cat appear after this screen?</h2><div class=""J_key""><strong>Yes</strong> <br> (press J)</div><div class=""F_key""><strong>No</strong> <br> (press F)</div><div class=""central_stim""><img src=""stimuli/Q.png"" width=""30%"" style=""padding:2vmin""></div><p class=""progress""> [56/64]</br>number of points: 32</p>",70.0,['stimuli/Q.png'],0.0,f,test,main,1.0,,O+
,html-keyboard-response,184,303415,0.0-7.0-2.23,5f0c730df08fe65de0a547c0,5d44714cd36e050001d44e24,5f0c92d4c2d3a647fc3e2894,False,0.4,,,"<div class=""central_stim""></div><p class=""progress""> [56/64]</br>number of points: 33</p>",,['stimuli/Q.png'],0.0,f,test,feedback,,,O+
,html-keyboard-response,185,303921,0.0-7.0-0.24,5f0c730df08fe65de0a547c0,5d44714cd36e050001d44e24,5f0c92d4c2d3a647fc3e2894,False,0.4,,,"<h2>Will the cat appear after this screen?</h2><div class=""J_key""><strong>Yes</strong> <br> (press J)</div><div class=""F_key""><strong>No</strong> <br> (press F)</div><p class=""progress""> [57/64]</br>number of points: 33</p>",,['stimuli/spade.png'],1.0,j,test,prepare,,,B+
,html-keyboard-response,186,304934,0.0-7.0-1.24,5f0c730df08fe65de0a547c0,5d44714cd36e050001d44e24,5f0c92d4c2d3a647fc3e2894,False,0.4,,1011.6950000519864,"<h2>Will the cat appear after this screen?</h2><div class=""J_key""><strong>Yes</strong> <br> (press J)</div><div class=""F_key""><strong>No</strong> <br> (press F)</div><div class=""central_stim""><img src=""stimuli/spade.png"" width=""30%"" style=""padding:2vmin""></div><p class=""progress""> [57/64]</br>number of points: 33</p>",74.0,['stimuli/spade.png'],1.0,j,test,main,1.0,,B+
,html-keyboard-response,187,306940,0.0-7.0-2.24,5f0c730df08fe65de0a547c0,5d44714cd36e050001d44e24,5f0c92d4c2d3a647fc3e2894,False,0.4,,,"<div class=""central_stim""><img src=""stimuli/cat.png"" class=""cat""></div><p class=""progress""> [57/64]</br>number of points: 34</p>",,['stimuli/spade.png'],1.0,j,test,feedback,,,B+
,html-keyboard-response,188,307445,0.0-7.0-0.25,5f0c730df08fe65de0a547c0,5d44714cd36e050001d44e24,5f0c92d4c2d3a647fc3e2894,False,0.4,,,"<h2>Will the cat appear after this screen?</h2><div class=""J_key""><strong>Yes</strong> <br> (press J)</div><div class=""F_key""><strong>No</strong> <br> (press F)</div><p class=""progress""> [58/64]</br>number of points: 34</p>",,['stimuli/O.png'],1.0,j,test,prepare,,,Q-
,html-keyboard-response,189,308080,0.0-7.0-1.25,5f0c730df08fe65de0a547c0,5d44714cd36e050001d44e24,5f0c92d4c2d3a647fc3e2894,False,0.4,,633.0299999681301,"<h2>Will the cat appear after this screen?</h2><div class=""J_key""><strong>Yes</strong> <br> (press J)</div><div class=""F_key""><strong>No</strong> <br> (press F)</div><div class=""central_stim""><img src=""stimuli/O.png"" width=""30%"" style=""padding:2vmin""></div><p class=""progress""> [58/64]</br>number of points: 34</p>",74.0,['stimuli/O.png'],1.0,j,test,main,1.0,,Q-
,html-keyboard-response,190,310084,0.0-7.0-2.25,5f0c730df08fe65de0a547c0,5d44714cd36e050001d44e24,5f0c92d4c2d3a647fc3e2894,False,0.4,,,"<div class=""central_stim""><img src=""stimuli/cat.png"" class=""cat""></div><p class=""progress""> [58/64]</br>number of points: 35</p>",,['stimuli/O.png'],1.0,j,test,feedback,,,Q-
,html-keyboard-response,191,310588,0.0-7.0-0.26,5f0c730df08fe65de0a547c0,5d44714cd36e050001d44e24,5f0c92d4c2d3a647fc3e2894,False,0.4,,,"<h2>Will the cat appear after this screen?</h2><div class=""J_key""><strong>Yes</strong> <br> (press J)</div><div class=""F_key""><strong>No</strong> <br> (press F)</div><p class=""progress""> [59/64]</br>number of points: 35</p>",,['stimuli/clover.png'],0.0,f,test,prepare,,,E-
,html-keyboard-response,192,311413,0.0-7.0-1.26,5f0c730df08fe65de0a547c0,5d44714cd36e050001d44e24,5f0c92d4c2d3a647fc3e2894,False,0.4,,822.5699999602512,"<h2>Will the cat appear after this screen?</h2><div class=""J_key""><strong>Yes</strong> <br> (press J)</div><div class=""F_key""><strong>No</strong> <br> (press F)</div><div class=""central_stim""><img src=""stimuli/clover.png"" width=""30%"" style=""padding:2vmin""></div><p class=""progress""> [59/64]</br>number of points: 35</p>",70.0,['stimuli/clover.png'],0.0,f,test,main,1.0,,E-
,html-keyboard-response,193,313418,0.0-7.0-2.26,5f0c730df08fe65de0a547c0,5d44714cd36e050001d44e24,5f0c92d4c2d3a647fc3e2894,False,0.4,,,"<div class=""central_stim""></div><p class=""progress""> [59/64]</br>number of points: 36</p>",,['stimuli/clover.png'],0.0,f,test,feedback,,,E-
,html-keyboard-response,194,313925,0.0-7.0-0.27,5f0c730df08fe65de0a547c0,5d44714cd36e050001d44e24,5f0c92d4c2d3a647fc3e2894,False,0.4,,,"<h2>Will the cat appear after this screen?</h2><div class=""J_key""><strong>Yes</strong> <br> (press J)</div><div class=""F_key""><strong>No</strong> <br> (press F)</div><p class=""progress""> [60/64]</br>number of points: 36</p>",,['stimuli/Q.png'],0.0,f,test,prepare,,,O+
,html-keyboard-response,195,314542,0.0-7.0-1.27,5f0c730df08fe65de0a547c0,5d44714cd36e050001d44e24,5f0c92d4c2d3a647fc3e2894,False,0.4,,615.7549999770708,"<h2>Will the cat appear after this screen?</h2><div class=""J_key""><strong>Yes</strong> <br> (press J)</div><div class=""F_key""><strong>No</strong> <br> (press F)</div><div class=""central_stim""><img src=""stimuli/Q.png"" width=""30%"" style=""padding:2vmin""></div><p class=""progress""> [60/64]</br>number of points: 36</p>",70.0,['stimuli/Q.png'],0.0,f,test,main,1.0,,O+
,html-keyboard-response,196,316548,0.0-7.0-2.27,5f0c730df08fe65de0a547c0,5d44714cd36e050001d44e24,5f0c92d4c2d3a647fc3e2894,False,0.4,,,"<div class=""central_stim""></div><p class=""progress""> [60/64]</br>number of points: 37</p>",,['stimuli/Q.png'],0.0,f,test,feedback,,,O+
,html-keyboard-response,197,317055,0.0-7.0-0.28,5f0c730df08fe65de0a547c0,5d44714cd36e050001d44e24,5f0c92d4c2d3a647fc3e2894,False,0.4,,,"<h2>Will the cat appear after this screen?</h2><div class=""J_key""><strong>Yes</strong> <br> (press J)</div><div class=""F_key""><strong>No</strong> <br> (press F)</div><p class=""progress""> [61/64]</br>number of points: 37</p>",,"['stimuli/down_facing.png', 'stimuli/clover.png']",1.0,j,test,prepare,,,EF+
,html-keyboard-response,198,318030,0.0-7.0-1.28,5f0c730df08fe65de0a547c0,5d44714cd36e050001d44e24,5f0c92d4c2d3a647fc3e2894,False,0.4,,973.9050000207499,"<h2>Will the cat appear after this screen?</h2><div class=""J_key""><strong>Yes</strong> <br> (press J)</div><div class=""F_key""><strong>No</strong> <br> (press F)</div><div class=""central_stim""><img src=""stimuli/down_facing.png"" width=""30%"" style=""padding:2vmin"">	<img src=""stimuli/clover.png"" width=""30%"" style=""padding:2vmin""></div><p class=""progress""> [61/64]</br>number of points: 37</p>",70.0,"['stimuli/down_facing.png', 'stimuli/clover.png']",1.0,j,test,main,0.0,,EF+
,html-keyboard-response,199,320033,0.0-7.0-2.28,5f0c730df08fe65de0a547c0,5d44714cd36e050001d44e24,5f0c92d4c2d3a647fc3e2894,False,0.4,,,"<div class=""central_stim""><img src=""stimuli/cat.png"" class=""cat""></div><p class=""progress""> [61/64]</br>number of points: 37</p>",,"['stimuli/down_facing.png', 'stimuli/clover.png']",1.0,j,test,feedback,,,EF+
,html-keyboard-response,200,320538,0.0-7.0-0.29,5f0c730df08fe65de0a547c0,5d44714cd36e050001d44e24,5f0c92d4c2d3a647fc3e2894,False,0.4,,,"<h2>Will the cat appear after this screen?</h2><div class=""J_key""><strong>Yes</strong> <br> (press J)</div><div class=""F_key""><strong>No</strong> <br> (press F)</div><p class=""progress""> [62/64]</br>number of points: 37</p>",,"['stimuli/circle.png', 'stimuli/diamond.png']",0.0,f,test,prepare,,,CD-
,html-keyboard-response,201,321478,0.0-7.0-1.29,5f0c730df08fe65de0a547c0,5d44714cd36e050001d44e24,5f0c92d4c2d3a647fc3e2894,False,0.4,,937.9449999541976,"<h2>Will the cat appear after this screen?</h2><div class=""J_key""><strong>Yes</strong> <br> (press J)</div><div class=""F_key""><strong>No</strong> <br> (press F)</div><div class=""central_stim""><img src=""stimuli/circle.png"" width=""30%"" style=""padding:2vmin"">	<img src=""stimuli/diamond.png"" width=""30%"" style=""padding:2vmin""></div><p class=""progress""> [62/64]</br>number of points: 37</p>",70.0,"['stimuli/circle.png', 'stimuli/diamond.png']",0.0,f,test,main,1.0,,CD-
,html-keyboard-response,202,323485,0.0-7.0-2.29,5f0c730df08fe65de0a547c0,5d44714cd36e050001d44e24,5f0c92d4c2d3a647fc3e2894,False,0.4,,,"<div class=""central_stim""></div><p class=""progress""> [62/64]</br>number of points: 38</p>",,"['stimuli/circle.png', 'stimuli/diamond.png']",0.0,f,test,feedback,,,CD-
,html-keyboard-response,203,323989,0.0-7.0-0.30,5f0c730df08fe65de0a547c0,5d44714cd36e050001d44e24,5f0c92d4c2d3a647fc3e2894,False,0.4,,,"<h2>Will the cat appear after this screen?</h2><div class=""J_key""><strong>Yes</strong> <br> (press J)</div><div class=""F_key""><strong>No</strong> <br> (press F)</div><p class=""progress""> [63/64]</br>number of points: 38</p>",,['stimuli/circle.png'],1.0,j,test,prepare,,,C+
,html-keyboard-response,204,324472,0.0-7.0-1.30,5f0c730df08fe65de0a547c0,5d44714cd36e050001d44e24,5f0c92d4c2d3a647fc3e2894,False,0.4,,481.05499998200685,"<h2>Will the cat appear after this screen?</h2><div class=""J_key""><strong>Yes</strong> <br> (press J)</div><div class=""F_key""><strong>No</strong> <br> (press F)</div><div class=""central_stim""><img src=""stimuli/circle.png"" width=""30%"" style=""padding:2vmin""></div><p class=""progress""> [63/64]</br>number of points: 38</p>",74.0,['stimuli/circle.png'],1.0,j,test,main,1.0,,C+
,html-keyboard-response,205,326476,0.0-7.0-2.30,5f0c730df08fe65de0a547c0,5d44714cd36e050001d44e24,5f0c92d4c2d3a647fc3e2894,False,0.4,,,"<div class=""central_stim""><img src=""stimuli/cat.png"" class=""cat""></div><p class=""progress""> [63/64]</br>number of points: 39</p>",,['stimuli/circle.png'],1.0,j,test,feedback,,,C+
,html-keyboard-response,206,326980,0.0-7.0-0.31,5f0c730df08fe65de0a547c0,5d44714cd36e050001d44e24,5f0c92d4c2d3a647fc3e2894,False,0.4,,,"<h2>Will the cat appear after this screen?</h2><div class=""J_key""><strong>Yes</strong> <br> (press J)</div><div class=""F_key""><strong>No</strong> <br> (press F)</div><p class=""progress""> [64/64]</br>number of points: 39</p>",,['stimuli/plus.png'],0.0,f,test,prepare,,,A-
,html-keyboard-response,207,327577,0.0-7.0-1.31,5f0c730df08fe65de0a547c0,5d44714cd36e050001d44e24,5f0c92d4c2d3a647fc3e2894,False,0.4,,593.9399999915622,"<h2>Will the cat appear after this screen?</h2><div class=""J_key""><strong>Yes</strong> <br> (press J)</div><div class=""F_key""><strong>No</strong> <br> (press F)</div><div class=""central_stim""><img src=""stimuli/plus.png"" width=""30%"" style=""padding:2vmin""></div><p class=""progress""> [64/64]</br>number of points: 39</p>",70.0,['stimuli/plus.png'],0.0,f,test,main,1.0,,A-
,html-keyboard-response,208,329585,0.0-7.0-2.31,5f0c730df08fe65de0a547c0,5d44714cd36e050001d44e24,5f0c92d4c2d3a647fc3e2894,False,0.4,,,"<div class=""central_stim""></div><p class=""progress""> [64/64]</br>number of points: 40</p>",,['stimuli/plus.png'],0.0,f,test,feedback,,,A-
,survey-text,209,334747,0.0-8.0,5f0c730df08fe65de0a547c0,5d44714cd36e050001d44e24,5f0c92d4c2d3a647fc3e2894,False,0.4,,5143.14000000013,,,,,,,,,"{""Q0"":""""}",
,instructions,210,340614,0.0-9.0,5f0c730df08fe65de0a547c0,5d44714cd36e050001d44e24,5f0c92d4c2d3a647fc3e2894,False,0.4,"[{""page_index"":0,""viewing_time"":5865.445000003092}]",5865.929999970831,,,,,,,,,,
1.0,fullscreen,0,2802,0.0-0.0,5f0c730df08fe65de0a547c0,5ee3adbebd07bf0553df6212,5f0c92d0befcfe0f1bfe6857,False,0.52,,,,,,,,,,,,
,instructions,1,29153,0.0-1.0,5f0c730df08fe65de0a547c0,5ee3adbebd07bf0553df6212,5f0c92d0befcfe0f1bfe6857,False,0.52,"[{""page_index"":0,""viewing_time"":3966.5749999694526},{""page_index"":1,""viewing_time"":90.73000005446374},{""page_index"":2,""viewing_time"":774.5349999750033},{""page_index"":1,""viewing_time"":9328.239999944344},{""page_index"":2,""viewing_time"":7414.695000043139},{""page_index"":3,""viewing_time"":3844.6550000226125},{""page_index"":4,""viewing_time"":930.7299999054521}]",26350.42999999132,,,,,,,,,,
,html-keyboard-response,2,29658,0.0-2.0-0.0-0.0,5f0c730df08fe65de0a547c0,5ee3adbebd07bf0553df6212,5f0c92d0befcfe0f1bfe6857,False,0.52,,,"<h2>Will the cat appear after this screen?</h2><div class=""J_key""><strong>Yes</strong> <br> (press J)</div><div class=""F_key""><strong>No</strong> <br> (press F)</div>",,['stimuli/spade.png'],1.0,j,practice,prepare,,,
,html-keyboard-response,3,31992,0.0-2.0-0.0-1.0,5f0c730df08fe65de0a547c0,5ee3adbebd07bf0553df6212,5f0c92d0befcfe0f1bfe6857,False,0.52,,2332.4749999446794,"<h2>Will the cat appear after this screen?</h2><div class=""J_key""><strong>Yes</strong> <br> (press J)</div><div class=""F_key""><strong>No</strong> <br> (press F)</div><div class=""central_stim""><img src=""stimuli/spade.png"" width=""30%"" style=""padding:2vmin""></div>",70.0,['stimuli/spade.png'],1.0,j,practice,main,0.0,,
,html-keyboard-response,4,33994,0.0-2.0-0.0-2.0,5f0c730df08fe65de0a547c0,5ee3adbebd07bf0553df6212,5f0c92d0befcfe0f1bfe6857,False,0.52,,,"<div class=""central_stim""><img src=""stimuli/cat.png"" class=""cat""></div>",,['stimuli/spade.png'],1.0,j,practice,feedback,,,
,html-keyboard-response,5,34499,0.0-2.0-0.0-0.1,5f0c730df08fe65de0a547c0,5ee3adbebd07bf0553df6212,5f0c92d0befcfe0f1bfe6857,False,0.52,,,"<h2>Will the cat appear after this screen?</h2><div class=""J_key""><strong>Yes</strong> <br> (press J)</div><div class=""F_key""><strong>No</strong> <br> (press F)</div>",,['stimuli/diamond.png'],0.0,f,practice,prepare,,,
,html-keyboard-response,6,36090,0.0-2.0-0.0-1.1,5f0c730df08fe65de0a547c0,5ee3adbebd07bf0553df6212,5f0c92d0befcfe0f1bfe6857,False,0.52,,1589.7500000428408,"<h2>Will the cat appear after this screen?</h2><div class=""J_key""><strong>Yes</strong> <br> (press J)</div><div class=""F_key""><strong>No</strong> <br> (press F)</div><div class=""central_stim""><img src=""stimuli/diamond.png"" width=""30%"" style=""padding:2vmin""></div>",74.0,['stimuli/diamond.png'],0.0,f,practice,main,0.0,,
,html-keyboard-response,7,38091,0.0-2.0-0.0-2.1,5f0c730df08fe65de0a547c0,5ee3adbebd07bf0553df6212,5f0c92d0befcfe0f1bfe6857,False,0.52,,,"<div class=""central_stim""></div>",,['stimuli/diamond.png'],0.0,f,practice,feedback,,,
,html-keyboard-response,8,38597,0.0-2.0-0.0-0.2,5f0c730df08fe65de0a547c0,5ee3adbebd07bf0553df6212,5f0c92d0befcfe0f1bfe6857,False,0.52,,,"<h2>Will the cat appear after this screen?</h2><div class=""J_key""><strong>Yes</strong> <br> (press J)</div><div class=""F_key""><strong>No</strong> <br> (press F)</div>",,['stimuli/spade.png'],1.0,j,practice,prepare,,,
,html-keyboard-response,9,40403,0.0-2.0-0.0-1.2,5f0c730df08fe65de0a547c0,5ee3adbebd07bf0553df6212,5f0c92d0befcfe0f1bfe6857,False,0.52,,1805.519999936223,"<h2>Will the cat appear after this screen?</h2><div class=""J_key""><strong>Yes</strong> <br> (press J)</div><div class=""F_key""><strong>No</strong> <br> (press F)</div><div class=""central_stim""><img src=""stimuli/spade.png"" width=""30%"" style=""padding:2vmin""></div>",74.0,['stimuli/spade.png'],1.0,j,practice,main,1.0,,
,html-keyboard-response,10,42408,0.0-2.0-0.0-2.2,5f0c730df08fe65de0a547c0,5ee3adbebd07bf0553df6212,5f0c92d0befcfe0f1bfe6857,False,0.52,,,"<div class=""central_stim""><img src=""stimuli/cat.png"" class=""cat""></div>",,['stimuli/spade.png'],1.0,j,practice,feedback,,,
,html-keyboard-response,11,42910,0.0-2.0-0.0-0.3,5f0c730df08fe65de0a547c0,5ee3adbebd07bf0553df6212,5f0c92d0befcfe0f1bfe6857,False,0.52,,,"<h2>Will the cat appear after this screen?</h2><div class=""J_key""><strong>Yes</strong> <br> (press J)</div><div class=""F_key""><strong>No</strong> <br> (press F)</div>",,['stimuli/diamond.png'],0.0,f,practice,prepare,,,
,html-keyboard-response,12,44056,0.0-2.0-0.0-1.3,5f0c730df08fe65de0a547c0,5ee3adbebd07bf0553df6212,5f0c92d0befcfe0f1bfe6857,False,0.52,,1144.5999999996275,"<h2>Will the cat appear after this screen?</h2><div class=""J_key""><strong>Yes</strong> <br> (press J)</div><div class=""F_key""><strong>No</strong> <br> (press F)</div><div class=""central_stim""><img src=""stimuli/diamond.png"" width=""30%"" style=""padding:2vmin""></div>",70.0,['stimuli/diamond.png'],0.0,f,practice,main,1.0,,
,html-keyboard-response,13,46058,0.0-2.0-0.0-2.3,5f0c730df08fe65de0a547c0,5ee3adbebd07bf0553df6212,5f0c92d0befcfe0f1bfe6857,False,0.52,,,"<div class=""central_stim""></div>",,['stimuli/diamond.png'],0.0,f,practice,feedback,,,
,html-keyboard-response,14,46560,0.0-2.1-0.1-0.4,5f0c730df08fe65de0a547c0,5ee3adbebd07bf0553df6212,5f0c92d0befcfe0f1bfe6857,False,0.52,,,"<h2>Will the cat appear after this screen?</h2><div class=""J_key""><strong>Yes</strong> <br> (press J)</div><div class=""F_key""><strong>No</strong> <br> (press F)</div>",,['stimuli/spade.png'],1.0,j,practice,prepare,,,
,html-keyboard-response,15,47512,0.0-2.1-0.1-1.4,5f0c730df08fe65de0a547c0,5ee3adbebd07bf0553df6212,5f0c92d0befcfe0f1bfe6857,False,0.52,,951.5750000718981,"<h2>Will the cat appear after this screen?</h2><div class=""J_key""><strong>Yes</strong> <br> (press J)</div><div class=""F_key""><strong>No</strong> <br> (press F)</div><div class=""central_stim""><img src=""stimuli/spade.png"" width=""30%"" style=""padding:2vmin""></div>",74.0,['stimuli/spade.png'],1.0,j,practice,main,1.0,,
,html-keyboard-response,16,49515,0.0-2.1-0.1-2.4,5f0c730df08fe65de0a547c0,5ee3adbebd07bf0553df6212,5f0c92d0befcfe0f1bfe6857,False,0.52,,,"<div class=""central_stim""><img src=""stimuli/cat.png"" class=""cat""></div>",,['stimuli/spade.png'],1.0,j,practice,feedback,,,
,html-keyboard-response,17,50018,0.0-2.1-0.1-0.5,5f0c730df08fe65de0a547c0,5ee3adbebd07bf0553df6212,5f0c92d0befcfe0f1bfe6857,False,0.52,,,"<h2>Will the cat appear after this screen?</h2><div class=""J_key""><strong>Yes</strong> <br> (press J)</div><div class=""F_key""><strong>No</strong> <br> (press F)</div>",,['stimuli/diamond.png'],0.0,f,practice,prepare,,,
,html-keyboard-response,18,52478,0.0-2.1-0.1-1.5,5f0c730df08fe65de0a547c0,5ee3adbebd07bf0553df6212,5f0c92d0befcfe0f1bfe6857,False,0.52,,2458.9149999665096,"<h2>Will the cat appear after this screen?</h2><div class=""J_key""><strong>Yes</strong> <br> (press J)</div><div class=""F_key""><strong>No</strong> <br> (press F)</div><div class=""central_stim""><img src=""stimuli/diamond.png"" width=""30%"" style=""padding:2vmin""></div>",70.0,['stimuli/diamond.png'],0.0,f,practice,main,1.0,,
,html-keyboard-response,19,54480,0.0-2.1-0.1-2.5,5f0c730df08fe65de0a547c0,5ee3adbebd07bf0553df6212,5f0c92d0befcfe0f1bfe6857,False,0.52,,,"<div class=""central_stim""></div>",,['stimuli/diamond.png'],0.0,f,practice,feedback,,,
,html-keyboard-response,20,54986,0.0-2.1-0.1-0.6,5f0c730df08fe65de0a547c0,5ee3adbebd07bf0553df6212,5f0c92d0befcfe0f1bfe6857,False,0.52,,,"<h2>Will the cat appear after this screen?</h2><div class=""J_key""><strong>Yes</strong> <br> (press J)</div><div class=""F_key""><strong>No</strong> <br> (press F)</div>",,['stimuli/spade.png'],1.0,j,practice,prepare,,,
,html-keyboard-response,21,56012,0.0-2.1-0.1-1.6,5f0c730df08fe65de0a547c0,5ee3adbebd07bf0553df6212,5f0c92d0befcfe0f1bfe6857,False,0.52,,1025.0650000525638,"<h2>Will the cat appear after this screen?</h2><div class=""J_key""><strong>Yes</strong> <br> (press J)</div><div class=""F_key""><strong>No</strong> <br> (press F)</div><div class=""central_stim""><img src=""stimuli/spade.png"" width=""30%"" style=""padding:2vmin""></div>",74.0,['stimuli/spade.png'],1.0,j,practice,main,1.0,,
,html-keyboard-response,22,58013,0.0-2.1-0.1-2.6,5f0c730df08fe65de0a547c0,5ee3adbebd07bf0553df6212,5f0c92d0befcfe0f1bfe6857,False,0.52,,,"<div class=""central_stim""><img src=""stimuli/cat.png"" class=""cat""></div>",,['stimuli/spade.png'],1.0,j,practice,feedback,,,
,html-keyboard-response,23,58517,0.0-2.1-0.1-0.7,5f0c730df08fe65de0a547c0,5ee3adbebd07bf0553df6212,5f0c92d0befcfe0f1bfe6857,False,0.52,,,"<h2>Will the cat appear after this screen?</h2><div class=""J_key""><strong>Yes</strong> <br> (press J)</div><div class=""F_key""><strong>No</strong> <br> (press F)</div>",,['stimuli/diamond.png'],0.0,f,practice,prepare,,,
,html-keyboard-response,24,59549,0.0-2.1-0.1-1.7,5f0c730df08fe65de0a547c0,5ee3adbebd07bf0553df6212,5f0c92d0befcfe0f1bfe6857,False,0.52,,1030.9750000014901,"<h2>Will the cat appear after this screen?</h2><div class=""J_key""><strong>Yes</strong> <br> (press J)</div><div class=""F_key""><strong>No</strong> <br> (press F)</div><div class=""central_stim""><img src=""stimuli/diamond.png"" width=""30%"" style=""padding:2vmin""></div>",70.0,['stimuli/diamond.png'],0.0,f,practice,main,1.0,,
,html-keyboard-response,25,61553,0.0-2.1-0.1-2.7,5f0c730df08fe65de0a547c0,5ee3adbebd07bf0553df6212,5f0c92d0befcfe0f1bfe6857,False,0.52,,,"<div class=""central_stim""></div>",,['stimuli/diamond.png'],0.0,f,practice,feedback,,,
,survey-text,26,104340,0.0-3.0,5f0c730df08fe65de0a547c0,5ee3adbebd07bf0553df6212,5f0c92d0befcfe0f1bfe6857,False,0.52,,42782.69999998156,,,,,,,,,"{""Q0"":""I need to predict whether or not a cat will appear on the screen based on the shapes that I see. If I think a cat will appear, I press J. Otherwise, if I don't think a cat will appear, I press F.""}",
,instructions,27,109088,0.0-4.0,5f0c730df08fe65de0a547c0,5ee3adbebd07bf0553df6212,5f0c92d0befcfe0f1bfe6857,False,0.52,"[{""page_index"":0,""viewing_time"":4747.455000062473}]",4747.885000077076,,,,,,,,,,
,html-keyboard-response,28,109595,0.0-5.0-0.0,5f0c730df08fe65de0a547c0,5ee3adbebd07bf0553df6212,5f0c92d0befcfe0f1bfe6857,False,0.52,,,"<h2>Will the cat appear after this screen?</h2><div class=""J_key""><strong>Yes</strong> <br> (press J)</div><div class=""F_key""><strong>No</strong> <br> (press F)</div><p class=""progress""> [1/64]</br>number of points: 0</p>",,['stimuli/heart.png'],1.0,j,test,prepare,,,B+
,html-keyboard-response,29,111281,0.0-5.0-1.0,5f0c730df08fe65de0a547c0,5ee3adbebd07bf0553df6212,5f0c92d0befcfe0f1bfe6857,False,0.52,,1685.2099999086931,"<h2>Will the cat appear after this screen?</h2><div class=""J_key""><strong>Yes</strong> <br> (press J)</div><div class=""F_key""><strong>No</strong> <br> (press F)</div><div class=""central_stim""><img src=""stimuli/heart.png"" width=""30%"" style=""padding:2vmin""></div><p class=""progress""> [1/64]</br>number of points: 0</p>",70.0,['stimuli/heart.png'],1.0,j,test,main,0.0,,B+
,html-keyboard-response,30,113285,0.0-5.0-2.0,5f0c730df08fe65de0a547c0,5ee3adbebd07bf0553df6212,5f0c92d0befcfe0f1bfe6857,False,0.52,,,"<div class=""central_stim""><img src=""stimuli/cat.png"" class=""cat""></div><p class=""progress""> [1/64]</br>number of points: 0</p>",,['stimuli/heart.png'],1.0,j,test,feedback,,,B+
