success,trial_type,trial_index,time_elapsed,internal_node_id,STUDY_ID,PROLIFIC_PID,SESSION_ID,bonus,nickname,rt,url,view_history,stimulus,key_press,shape_array,trial_part,respond,test_part,FP,correct,trial,block,responses
1.0,fullscreen,0,27484,0.0-0.0,5f1595f708c0591d0f724058,5deb9c5a4de9422935efe5e7,5f16a3d5bf131c822978bc3a,0.30000000000000004,rick84,,,,,,,,,,,,,,
,external-html,1,37811,0.0-1.0,5f1595f708c0591d0f724058,5deb9c5a4de9422935efe5e7,5f16a3d5bf131c822978bc3a,0.30000000000000004,rick84,10307.330000039656,nickname.html,,,,,,,,,,,,
,instructions,2,101952,0.0-2.0,5f1595f708c0591d0f724058,5deb9c5a4de9422935efe5e7,5f16a3d5bf131c822978bc3a,0.30000000000000004,rick84,64138.5499999742,,"[{""page_index"":0,""viewing_time"":40444.484999985434},{""page_index"":1,""viewing_time"":7211.394999991171},{""page_index"":2,""viewing_time"":2846.350000007078},{""page_index"":3,""viewing_time"":8167.970000009518},{""page_index"":4,""viewing_time"":5467.654999985825}]",,,,,,,,,,,
,html-keyboard-response,3,108100,0.0-3.0-0.0,5f1595f708c0591d0f724058,5deb9c5a4de9422935efe5e7,5f16a3d5bf131c822978bc3a,0.30000000000000004,rick84,6145.784999942407,,,"<div style=""width:150px;height:56px;font-size:30px;text-align:center;"">+</div><div class=""reminder"">Press <strong>Space</strong> for <img src=""stimuli/clover.png"" width=""3%"">, not for <img src=""stimuli/heart.png"" width=""3%""></div><div class=""progress""> Press <strong>Space</strong> to start the block.</div>",32.0,"['stimuli/heart.png', 'stimuli/clover.png']",prepare,,,,,,,
,html-keyboard-response,4,108604,0.0-4.0-0.0,5f1595f708c0591d0f724058,5deb9c5a4de9422935efe5e7,5f16a3d5bf131c822978bc3a,0.30000000000000004,rick84,,,,"<div style=""width:150px;height:56px;font-size:30px;text-align:center;"">+</div><div class=""reminder"">Press <strong>Space</strong> for <img src=""stimuli/clover.png"" width=""3%"">, not for <img src=""stimuli/heart.png"" width=""3%""></div>",,,,,,,,,,
,html-keyboard-response,5,109067,0.0-4.0-1.0,5f1595f708c0591d0f724058,5deb9c5a4de9422935efe5e7,5f16a3d5bf131c822978bc3a,0.30000000000000004,rick84,462.52000000094995,,,"<div style=""width:150px;height:56px;font-size:30px;text-align:center;"">+</div><div class=""central_stim""><img src=""stimuli/clover.png"" width=""30%"" style=""padding:2vmin""></div><div class=""reminder"">Press <strong>Space</strong> for <img src=""stimuli/clover.png"" width=""3%"">, not for <img src=""stimuli/heart.png"" width=""3%""></div>",32.0,"['stimuli/heart.png', 'stimuli/clover.png']",main,1.0,practice,0.0,1.0,1.0,0.0,
,html-keyboard-response,6,109568,0.0-4.0-0.1,5f1595f708c0591d0f724058,5deb9c5a4de9422935efe5e7,5f16a3d5bf131c822978bc3a,0.30000000000000004,rick84,,,,"<div style=""width:150px;height:56px;font-size:30px;text-align:center;"">+</div><div class=""reminder"">Press <strong>Space</strong> for <img src=""stimuli/clover.png"" width=""3%"">, not for <img src=""stimuli/heart.png"" width=""3%""></div>",,,,,,,,,,
,html-keyboard-response,7,110072,0.0-4.0-1.1,5f1595f708c0591d0f724058,5deb9c5a4de9422935efe5e7,5f16a3d5bf131c822978bc3a,0.30000000000000004,rick84,,,,"<div style=""width:150px;height:56px;font-size:30px;text-align:center;"">+</div><div class=""central_stim""><img src=""stimuli/heart.png"" width=""30%"" style=""padding:2vmin""></div><div class=""reminder"">Press <strong>Space</strong> for <img src=""stimuli/clover.png"" width=""3%"">, not for <img src=""stimuli/heart.png"" width=""3%""></div>",,"['stimuli/heart.png', 'stimuli/clover.png']",main,0.0,practice,0.0,1.0,2.0,0.0,
,html-keyboard-response,8,110578,0.0-4.0-0.2,5f1595f708c0591d0f724058,5deb9c5a4de9422935efe5e7,5f16a3d5bf131c822978bc3a,0.30000000000000004,rick84,,,,"<div style=""width:150px;height:56px;font-size:30px;text-align:center;"">+</div><div class=""reminder"">Press <strong>Space</strong> for <img src=""stimuli/clover.png"" width=""3%"">, not for <img src=""stimuli/heart.png"" width=""3%""></div>",,,,,,,,,,
,html-keyboard-response,9,110946,0.0-4.0-1.2,5f1595f708c0591d0f724058,5deb9c5a4de9422935efe5e7,5f16a3d5bf131c822978bc3a,0.30000000000000004,rick84,366.5900000487454,,,"<div style=""width:150px;height:56px;font-size:30px;text-align:center;"">+</div><div class=""central_stim""><img src=""stimuli/clover.png"" width=""30%"" style=""padding:2vmin""></div><div class=""reminder"">Press <strong>Space</strong> for <img src=""stimuli/clover.png"" width=""3%"">, not for <img src=""stimuli/heart.png"" width=""3%""></div>",32.0,"['stimuli/heart.png', 'stimuli/clover.png']",main,1.0,practice,0.0,1.0,3.0,0.0,
,html-keyboard-response,10,111450,0.0-4.0-0.3,5f1595f708c0591d0f724058,5deb9c5a4de9422935efe5e7,5f16a3d5bf131c822978bc3a,0.30000000000000004,rick84,,,,"<div style=""width:150px;height:56px;font-size:30px;text-align:center;"">+</div><div class=""reminder"">Press <strong>Space</strong> for <img src=""stimuli/clover.png"" width=""3%"">, not for <img src=""stimuli/heart.png"" width=""3%""></div>",,,,,,,,,,
,html-keyboard-response,11,111956,0.0-4.0-1.3,5f1595f708c0591d0f724058,5deb9c5a4de9422935efe5e7,5f16a3d5bf131c822978bc3a,0.30000000000000004,rick84,,,,"<div style=""width:150px;height:56px;font-size:30px;text-align:center;"">+</div><div class=""central_stim""><img src=""stimuli/heart.png"" width=""30%"" style=""padding:2vmin""></div><div class=""reminder"">Press <strong>Space</strong> for <img src=""stimuli/clover.png"" width=""3%"">, not for <img src=""stimuli/heart.png"" width=""3%""></div>",,"['stimuli/heart.png', 'stimuli/clover.png']",main,0.0,practice,0.0,1.0,4.0,0.0,
,html-keyboard-response,12,112459,0.0-4.0-0.4,5f1595f708c0591d0f724058,5deb9c5a4de9422935efe5e7,5f16a3d5bf131c822978bc3a,0.30000000000000004,rick84,,,,"<div style=""width:150px;height:56px;font-size:30px;text-align:center;"">+</div><div class=""reminder"">Press <strong>Space</strong> for <img src=""stimuli/clover.png"" width=""3%"">, not for <img src=""stimuli/heart.png"" width=""3%""></div>",,,,,,,,,,
,html-keyboard-response,13,112881,0.0-4.0-1.4,5f1595f708c0591d0f724058,5deb9c5a4de9422935efe5e7,5f16a3d5bf131c822978bc3a,0.30000000000000004,rick84,420.9649999975227,,,"<div style=""width:150px;height:56px;font-size:30px;text-align:center;"">+</div><div class=""central_stim""><img src=""stimuli/clover.png"" width=""30%"" style=""padding:2vmin""></div><div class=""reminder"">Press <strong>Space</strong> for <img src=""stimuli/clover.png"" width=""3%"">, not for <img src=""stimuli/heart.png"" width=""3%""></div>",32.0,"['stimuli/heart.png', 'stimuli/clover.png']",main,1.0,practice,0.0,1.0,5.0,0.0,
,html-keyboard-response,14,113384,0.0-4.0-0.5,5f1595f708c0591d0f724058,5deb9c5a4de9422935efe5e7,5f16a3d5bf131c822978bc3a,0.30000000000000004,rick84,,,,"<div style=""width:150px;height:56px;font-size:30px;text-align:center;"">+</div><div class=""reminder"">Press <strong>Space</strong> for <img src=""stimuli/clover.png"" width=""3%"">, not for <img src=""stimuli/heart.png"" width=""3%""></div>",,,,,,,,,,
,html-keyboard-response,15,113889,0.0-4.0-1.5,5f1595f708c0591d0f724058,5deb9c5a4de9422935efe5e7,5f16a3d5bf131c822978bc3a,0.30000000000000004,rick84,,,,"<div style=""width:150px;height:56px;font-size:30px;text-align:center;"">+</div><div class=""central_stim""><img src=""stimuli/clover.png"" width=""30%"" style=""padding:2vmin""></div><div class=""reminder"">Press <strong>Space</strong> for <img src=""stimuli/clover.png"" width=""3%"">, not for <img src=""stimuli/heart.png"" width=""3%""></div>",,"['stimuli/heart.png', 'stimuli/clover.png']",main,1.0,practice,0.0,0.0,6.0,0.0,
,html-keyboard-response,16,114392,0.0-4.0-0.6,5f1595f708c0591d0f724058,5deb9c5a4de9422935efe5e7,5f16a3d5bf131c822978bc3a,0.30000000000000004,rick84,3.175000019837171,,,"<div style=""width:150px;height:56px;font-size:30px;text-align:center;"">+</div><div class=""reminder"">Press <strong>Space</strong> for <img src=""stimuli/clover.png"" width=""3%"">, not for <img src=""stimuli/heart.png"" width=""3%""></div>",32.0,,,,,,,,,
,html-keyboard-response,17,114896,0.0-4.0-1.6,5f1595f708c0591d0f724058,5deb9c5a4de9422935efe5e7,5f16a3d5bf131c822978bc3a,0.30000000000000004,rick84,,,,"<div style=""width:150px;height:56px;font-size:30px;text-align:center;"">+</div><div class=""central_stim""><img src=""stimuli/heart.png"" width=""30%"" style=""padding:2vmin""></div><div class=""reminder"">Press <strong>Space</strong> for <img src=""stimuli/clover.png"" width=""3%"">, not for <img src=""stimuli/heart.png"" width=""3%""></div>",,"['stimuli/heart.png', 'stimuli/clover.png']",main,0.0,practice,0.0,1.0,7.0,0.0,
,html-keyboard-response,18,115402,0.0-4.0-0.7,5f1595f708c0591d0f724058,5deb9c5a4de9422935efe5e7,5f16a3d5bf131c822978bc3a,0.30000000000000004,rick84,,,,"<div style=""width:150px;height:56px;font-size:30px;text-align:center;"">+</div><div class=""reminder"">Press <strong>Space</strong> for <img src=""stimuli/clover.png"" width=""3%"">, not for <img src=""stimuli/heart.png"" width=""3%""></div>",,,,,,,,,,
,html-keyboard-response,19,115904,0.0-4.0-1.7,5f1595f708c0591d0f724058,5deb9c5a4de9422935efe5e7,5f16a3d5bf131c822978bc3a,0.30000000000000004,rick84,,,,"<div style=""width:150px;height:56px;font-size:30px;text-align:center;"">+</div><div class=""central_stim""><img src=""stimuli/heart.png"" width=""30%"" style=""padding:2vmin""></div><div class=""reminder"">Press <strong>Space</strong> for <img src=""stimuli/clover.png"" width=""3%"">, not for <img src=""stimuli/heart.png"" width=""3%""></div>",,"['stimuli/heart.png', 'stimuli/clover.png']",main,0.0,practice,0.0,1.0,8.0,0.0,
,survey-text,20,138439,0.0-5.0,5f1595f708c0591d0f724058,5deb9c5a4de9422935efe5e7,5f16a3d5bf131c822978bc3a,0.30000000000000004,rick84,22531.90000000177,,,,,,,,,,,,,"{""Q0"":""press space when you see a certain shape. Dont press it when you dont""}"
,instructions,21,146843,0.0-6.0,5f1595f708c0591d0f724058,5deb9c5a4de9422935efe5e7,5f16a3d5bf131c822978bc3a,0.30000000000000004,rick84,8402.874999970663,,"[{""page_index"":0,""viewing_time"":8402.61999994982}]",,,,,,,,,,,
,instructions,22,151490,0.0-7.0-0.0-0.0,5f1595f708c0591d0f724058,5deb9c5a4de9422935efe5e7,5f16a3d5bf131c822978bc3a,0.30000000000000004,rick84,4646.409999986645,,"[{""page_index"":0,""viewing_time"":4646.140000026207}]",,,,,,,,,,,
,html-keyboard-response,23,155004,0.0-7.0-0.0-1.0-0.0,5f1595f708c0591d0f724058,5deb9c5a4de9422935efe5e7,5f16a3d5bf131c822978bc3a,0.30000000000000004,rick84,3513.135000015609,,,"<div style=""width:150px;height:56px;font-size:30px;text-align:center;"">+</div><div class=""reminder"">Press <strong>Space</strong> for <img src=""stimuli/Q.png"" width=""3%"">, not for <img src=""stimuli/O.png"" width=""3%""></div><div class=""progress""> Press <strong>Space</strong> to start the block.</div>",32.0,"['stimuli/O.png', 'stimuli/Q.png']",prepare,,,,,,,
,html-keyboard-response,24,155505,0.0-7.0-0.0-2.0-0.0,5f1595f708c0591d0f724058,5deb9c5a4de9422935efe5e7,5f16a3d5bf131c822978bc3a,0.30000000000000004,rick84,,,,"<div style=""width:150px;height:56px;font-size:30px;text-align:center;"">+</div><div class=""reminder"">Press <strong>Space</strong> for <img src=""stimuli/Q.png"" width=""3%"">, not for <img src=""stimuli/O.png"" width=""3%""></div>",,,,,,,,,,
,html-keyboard-response,25,155916,0.0-7.0-0.0-2.0-1.0,5f1595f708c0591d0f724058,5deb9c5a4de9422935efe5e7,5f16a3d5bf131c822978bc3a,0.30000000000000004,rick84,409.64999998686835,,,"<div style=""width:150px;height:56px;font-size:30px;text-align:center;"">+</div><div class=""central_stim""><img src=""stimuli/Q.png"" width=""30%"" style=""padding:2vmin""></div><div class=""reminder"">Press <strong>Space</strong> for <img src=""stimuli/Q.png"" width=""3%"">, not for <img src=""stimuli/O.png"" width=""3%""></div>",32.0,"['stimuli/O.png', 'stimuli/Q.png']",main,1.0,test,1.0,1.0,0.0,1.0,
,html-keyboard-response,26,156419,0.0-7.0-0.0-2.0-0.1,5f1595f708c0591d0f724058,5deb9c5a4de9422935efe5e7,5f16a3d5bf131c822978bc3a,0.30000000000000004,rick84,,,,"<div style=""width:150px;height:56px;font-size:30px;text-align:center;"">+</div><div class=""reminder"">Press <strong>Space</strong> for <img src=""stimuli/Q.png"" width=""3%"">, not for <img src=""stimuli/O.png"" width=""3%""></div>",,,,,,,,,,
,html-keyboard-response,27,156794,0.0-7.0-0.0-2.0-1.1,5f1595f708c0591d0f724058,5deb9c5a4de9422935efe5e7,5f16a3d5bf131c822978bc3a,0.30000000000000004,rick84,373.8800000282936,,,"<div style=""width:150px;height:56px;font-size:30px;text-align:center;"">+</div><div class=""central_stim""><img src=""stimuli/Q.png"" width=""30%"" style=""padding:2vmin""></div><div class=""reminder"">Press <strong>Space</strong> for <img src=""stimuli/Q.png"" width=""3%"">, not for <img src=""stimuli/O.png"" width=""3%""></div>",32.0,"['stimuli/O.png', 'stimuli/Q.png']",main,1.0,test,1.0,1.0,1.0,1.0,
,html-keyboard-response,28,157297,0.0-7.0-0.0-2.0-0.2,5f1595f708c0591d0f724058,5deb9c5a4de9422935efe5e7,5f16a3d5bf131c822978bc3a,0.30000000000000004,rick84,,,,"<div style=""width:150px;height:56px;font-size:30px;text-align:center;"">+</div><div class=""reminder"">Press <strong>Space</strong> for <img src=""stimuli/Q.png"" width=""3%"">, not for <img src=""stimuli/O.png"" width=""3%""></div>",,,,,,,,,,
,html-keyboard-response,29,157615,0.0-7.0-0.0-2.0-1.2,5f1595f708c0591d0f724058,5deb9c5a4de9422935efe5e7,5f16a3d5bf131c822978bc3a,0.30000000000000004,rick84,316.835000005085,,,"<div style=""width:150px;height:56px;font-size:30px;text-align:center;"">+</div><div class=""central_stim""><img src=""stimuli/Q.png"" width=""30%"" style=""padding:2vmin""></div><div class=""reminder"">Press <strong>Space</strong> for <img src=""stimuli/Q.png"" width=""3%"">, not for <img src=""stimuli/O.png"" width=""3%""></div>",32.0,"['stimuli/O.png', 'stimuli/Q.png']",main,1.0,test,1.0,1.0,2.0,1.0,
,html-keyboard-response,30,158117,0.0-7.0-0.0-2.0-0.3,5f1595f708c0591d0f724058,5deb9c5a4de9422935efe5e7,5f16a3d5bf131c822978bc3a,0.30000000000000004,rick84,,,,"<div style=""width:150px;height:56px;font-size:30px;text-align:center;"">+</div><div class=""reminder"">Press <strong>Space</strong> for <img src=""stimuli/Q.png"" width=""3%"">, not for <img src=""stimuli/O.png"" width=""3%""></div>",,,,,,,,,,
,html-keyboard-response,31,158618,0.0-7.0-0.0-2.0-1.3,5f1595f708c0591d0f724058,5deb9c5a4de9422935efe5e7,5f16a3d5bf131c822978bc3a,0.30000000000000004,rick84,,,,"<div style=""width:150px;height:56px;font-size:30px;text-align:center;"">+</div><div class=""central_stim""><img src=""stimuli/O.png"" width=""30%"" style=""padding:2vmin""></div><div class=""reminder"">Press <strong>Space</strong> for <img src=""stimuli/Q.png"" width=""3%"">, not for <img src=""stimuli/O.png"" width=""3%""></div>",,"['stimuli/O.png', 'stimuli/Q.png']",main,0.0,test,1.0,1.0,3.0,1.0,
,html-keyboard-response,32,159122,0.0-7.0-0.0-2.0-0.4,5f1595f708c0591d0f724058,5deb9c5a4de9422935efe5e7,5f16a3d5bf131c822978bc3a,0.30000000000000004,rick84,,,,"<div style=""width:150px;height:56px;font-size:30px;text-align:center;"">+</div><div class=""reminder"">Press <strong>Space</strong> for <img src=""stimuli/Q.png"" width=""3%"">, not for <img src=""stimuli/O.png"" width=""3%""></div>",,,,,,,,,,
,html-keyboard-response,33,159625,0.0-7.0-0.0-2.0-1.4,5f1595f708c0591d0f724058,5deb9c5a4de9422935efe5e7,5f16a3d5bf131c822978bc3a,0.30000000000000004,rick84,,,,"<div style=""width:150px;height:56px;font-size:30px;text-align:center;"">+</div><div class=""central_stim""><img src=""stimuli/O.png"" width=""30%"" style=""padding:2vmin""></div><div class=""reminder"">Press <strong>Space</strong> for <img src=""stimuli/Q.png"" width=""3%"">, not for <img src=""stimuli/O.png"" width=""3%""></div>",,"['stimuli/O.png', 'stimuli/Q.png']",main,0.0,test,1.0,1.0,4.0,1.0,
,html-keyboard-response,34,160131,0.0-7.0-0.0-2.0-0.5,5f1595f708c0591d0f724058,5deb9c5a4de9422935efe5e7,5f16a3d5bf131c822978bc3a,0.30000000000000004,rick84,,,,"<div style=""width:150px;height:56px;font-size:30px;text-align:center;"">+</div><div class=""reminder"">Press <strong>Space</strong> for <img src=""stimuli/Q.png"" width=""3%"">, not for <img src=""stimuli/O.png"" width=""3%""></div>",,,,,,,,,,
,html-keyboard-response,35,160635,0.0-7.0-0.0-2.0-1.5,5f1595f708c0591d0f724058,5deb9c5a4de9422935efe5e7,5f16a3d5bf131c822978bc3a,0.30000000000000004,rick84,,,,"<div style=""width:150px;height:56px;font-size:30px;text-align:center;"">+</div><div class=""central_stim""><img src=""stimuli/O.png"" width=""30%"" style=""padding:2vmin""></div><div class=""reminder"">Press <strong>Space</strong> for <img src=""stimuli/Q.png"" width=""3%"">, not for <img src=""stimuli/O.png"" width=""3%""></div>",,"['stimuli/O.png', 'stimuli/Q.png']",main,0.0,test,1.0,1.0,5.0,1.0,
,html-keyboard-response,36,161139,0.0-7.0-0.0-2.0-0.6,5f1595f708c0591d0f724058,5deb9c5a4de9422935efe5e7,5f16a3d5bf131c822978bc3a,0.30000000000000004,rick84,,,,"<div style=""width:150px;height:56px;font-size:30px;text-align:center;"">+</div><div class=""reminder"">Press <strong>Space</strong> for <img src=""stimuli/Q.png"" width=""3%"">, not for <img src=""stimuli/O.png"" width=""3%""></div>",,,,,,,,,,
,html-keyboard-response,37,161429,0.0-7.0-0.0-2.0-1.6,5f1595f708c0591d0f724058,5deb9c5a4de9422935efe5e7,5f16a3d5bf131c822978bc3a,0.30000000000000004,rick84,289.3199999816716,,,"<div style=""width:150px;height:56px;font-size:30px;text-align:center;"">+</div><div class=""central_stim""><img src=""stimuli/Q.png"" width=""30%"" style=""padding:2vmin""></div><div class=""reminder"">Press <strong>Space</strong> for <img src=""stimuli/Q.png"" width=""3%"">, not for <img src=""stimuli/O.png"" width=""3%""></div>",32.0,"['stimuli/O.png', 'stimuli/Q.png']",main,1.0,test,1.0,1.0,6.0,1.0,
,html-keyboard-response,38,161930,0.0-7.0-0.0-2.0-0.7,5f1595f708c0591d0f724058,5deb9c5a4de9422935efe5e7,5f16a3d5bf131c822978bc3a,0.30000000000000004,rick84,,,,"<div style=""width:150px;height:56px;font-size:30px;text-align:center;"">+</div><div class=""reminder"">Press <strong>Space</strong> for <img src=""stimuli/Q.png"" width=""3%"">, not for <img src=""stimuli/O.png"" width=""3%""></div>",,,,,,,,,,
,html-keyboard-response,39,162436,0.0-7.0-0.0-2.0-1.7,5f1595f708c0591d0f724058,5deb9c5a4de9422935efe5e7,5f16a3d5bf131c822978bc3a,0.30000000000000004,rick84,,,,"<div style=""width:150px;height:56px;font-size:30px;text-align:center;"">+</div><div class=""central_stim""><img src=""stimuli/O.png"" width=""30%"" style=""padding:2vmin""></div><div class=""reminder"">Press <strong>Space</strong> for <img src=""stimuli/Q.png"" width=""3%"">, not for <img src=""stimuli/O.png"" width=""3%""></div>",,"['stimuli/O.png', 'stimuli/Q.png']",main,0.0,test,1.0,1.0,7.0,1.0,
,html-keyboard-response,40,162939,0.0-7.0-0.0-2.0-0.8,5f1595f708c0591d0f724058,5deb9c5a4de9422935efe5e7,5f16a3d5bf131c822978bc3a,0.30000000000000004,rick84,,,,"<div style=""width:150px;height:56px;font-size:30px;text-align:center;"">+</div><div class=""reminder"">Press <strong>Space</strong> for <img src=""stimuli/Q.png"" width=""3%"">, not for <img src=""stimuli/O.png"" width=""3%""></div>",,,,,,,,,,
,html-keyboard-response,41,163251,0.0-7.0-0.0-2.0-1.8,5f1595f708c0591d0f724058,5deb9c5a4de9422935efe5e7,5f16a3d5bf131c822978bc3a,0.30000000000000004,rick84,311.7750000092201,,,"<div style=""width:150px;height:56px;font-size:30px;text-align:center;"">+</div><div class=""central_stim""><img src=""stimuli/Q.png"" width=""30%"" style=""padding:2vmin""></div><div class=""reminder"">Press <strong>Space</strong> for <img src=""stimuli/Q.png"" width=""3%"">, not for <img src=""stimuli/O.png"" width=""3%""></div>",32.0,"['stimuli/O.png', 'stimuli/Q.png']",main,1.0,test,1.0,1.0,8.0,1.0,
,html-keyboard-response,42,163756,0.0-7.0-0.0-2.0-0.9,5f1595f708c0591d0f724058,5deb9c5a4de9422935efe5e7,5f16a3d5bf131c822978bc3a,0.30000000000000004,rick84,,,,"<div style=""width:150px;height:56px;font-size:30px;text-align:center;"">+</div><div class=""reminder"">Press <strong>Space</strong> for <img src=""stimuli/Q.png"" width=""3%"">, not for <img src=""stimuli/O.png"" width=""3%""></div>",,,,,,,,,,
,html-keyboard-response,43,164259,0.0-7.0-0.0-2.0-1.9,5f1595f708c0591d0f724058,5deb9c5a4de9422935efe5e7,5f16a3d5bf131c822978bc3a,0.30000000000000004,rick84,,,,"<div style=""width:150px;height:56px;font-size:30px;text-align:center;"">+</div><div class=""central_stim""><img src=""stimuli/O.png"" width=""30%"" style=""padding:2vmin""></div><div class=""reminder"">Press <strong>Space</strong> for <img src=""stimuli/Q.png"" width=""3%"">, not for <img src=""stimuli/O.png"" width=""3%""></div>",,"['stimuli/O.png', 'stimuli/Q.png']",main,0.0,test,1.0,1.0,9.0,1.0,
,html-keyboard-response,44,164764,0.0-7.0-0.0-2.0-0.10,5f1595f708c0591d0f724058,5deb9c5a4de9422935efe5e7,5f16a3d5bf131c822978bc3a,0.30000000000000004,rick84,,,,"<div style=""width:150px;height:56px;font-size:30px;text-align:center;"">+</div><div class=""reminder"">Press <strong>Space</strong> for <img src=""stimuli/Q.png"" width=""3%"">, not for <img src=""stimuli/O.png"" width=""3%""></div>",,,,,,,,,,
,html-keyboard-response,45,165268,0.0-7.0-0.0-2.0-1.10,5f1595f708c0591d0f724058,5deb9c5a4de9422935efe5e7,5f16a3d5bf131c822978bc3a,0.30000000000000004,rick84,,,,"<div style=""width:150px;height:56px;font-size:30px;text-align:center;"">+</div><div class=""central_stim""><img src=""stimuli/O.png"" width=""30%"" style=""padding:2vmin""></div><div class=""reminder"">Press <strong>Space</strong> for <img src=""stimuli/Q.png"" width=""3%"">, not for <img src=""stimuli/O.png"" width=""3%""></div>",,"['stimuli/O.png', 'stimuli/Q.png']",main,0.0,test,1.0,1.0,10.0,1.0,
,html-keyboard-response,46,165773,0.0-7.0-0.0-2.0-0.11,5f1595f708c0591d0f724058,5deb9c5a4de9422935efe5e7,5f16a3d5bf131c822978bc3a,0.30000000000000004,rick84,,,,"<div style=""width:150px;height:56px;font-size:30px;text-align:center;"">+</div><div class=""reminder"">Press <strong>Space</strong> for <img src=""stimuli/Q.png"" width=""3%"">, not for <img src=""stimuli/O.png"" width=""3%""></div>",,,,,,,,,,
,html-keyboard-response,47,166098,0.0-7.0-0.0-2.0-1.11,5f1595f708c0591d0f724058,5deb9c5a4de9422935efe5e7,5f16a3d5bf131c822978bc3a,0.30000000000000004,rick84,324.6100000105798,,,"<div style=""width:150px;height:56px;font-size:30px;text-align:center;"">+</div><div class=""central_stim""><img src=""stimuli/Q.png"" width=""30%"" style=""padding:2vmin""></div><div class=""reminder"">Press <strong>Space</strong> for <img src=""stimuli/Q.png"" width=""3%"">, not for <img src=""stimuli/O.png"" width=""3%""></div>",32.0,"['stimuli/O.png', 'stimuli/Q.png']",main,1.0,test,1.0,1.0,11.0,1.0,
,html-keyboard-response,48,166599,0.0-7.0-0.0-2.0-0.12,5f1595f708c0591d0f724058,5deb9c5a4de9422935efe5e7,5f16a3d5bf131c822978bc3a,0.30000000000000004,rick84,,,,"<div style=""width:150px;height:56px;font-size:30px;text-align:center;"">+</div><div class=""reminder"">Press <strong>Space</strong> for <img src=""stimuli/Q.png"" width=""3%"">, not for <img src=""stimuli/O.png"" width=""3%""></div>",,,,,,,,,,
,html-keyboard-response,49,167103,0.0-7.0-0.0-2.0-1.12,5f1595f708c0591d0f724058,5deb9c5a4de9422935efe5e7,5f16a3d5bf131c822978bc3a,0.30000000000000004,rick84,,,,"<div style=""width:150px;height:56px;font-size:30px;text-align:center;"">+</div><div class=""central_stim""><img src=""stimuli/Q.png"" width=""30%"" style=""padding:2vmin""></div><div class=""reminder"">Press <strong>Space</strong> for <img src=""stimuli/Q.png"" width=""3%"">, not for <img src=""stimuli/O.png"" width=""3%""></div>",,"['stimuli/O.png', 'stimuli/Q.png']",main,1.0,test,1.0,0.0,12.0,1.0,
,html-keyboard-response,50,167604,0.0-7.0-0.0-2.0-0.13,5f1595f708c0591d0f724058,5deb9c5a4de9422935efe5e7,5f16a3d5bf131c822978bc3a,0.30000000000000004,rick84,29.700000013690442,,,"<div style=""width:150px;height:56px;font-size:30px;text-align:center;"">+</div><div class=""reminder"">Press <strong>Space</strong> for <img src=""stimuli/Q.png"" width=""3%"">, not for <img src=""stimuli/O.png"" width=""3%""></div>",32.0,,,,,,,,,
,html-keyboard-response,51,167853,0.0-7.0-0.0-2.0-1.13,5f1595f708c0591d0f724058,5deb9c5a4de9422935efe5e7,5f16a3d5bf131c822978bc3a,0.30000000000000004,rick84,248.33500001113862,,,"<div style=""width:150px;height:56px;font-size:30px;text-align:center;"">+</div><div class=""central_stim""><img src=""stimuli/O.png"" width=""30%"" style=""padding:2vmin""></div><div class=""reminder"">Press <strong>Space</strong> for <img src=""stimuli/Q.png"" width=""3%"">, not for <img src=""stimuli/O.png"" width=""3%""></div>",32.0,"['stimuli/O.png', 'stimuli/Q.png']",main,0.0,test,1.0,0.0,13.0,1.0,
,html-keyboard-response,52,168356,0.0-7.0-0.0-2.0-0.14,5f1595f708c0591d0f724058,5deb9c5a4de9422935efe5e7,5f16a3d5bf131c822978bc3a,0.30000000000000004,rick84,,,,"<div style=""width:150px;height:56px;font-size:30px;text-align:center;"">+</div><div class=""reminder"">Press <strong>Space</strong> for <img src=""stimuli/Q.png"" width=""3%"">, not for <img src=""stimuli/O.png"" width=""3%""></div>",,,,,,,,,,
,html-keyboard-response,53,168862,0.0-7.0-0.0-2.0-1.14,5f1595f708c0591d0f724058,5deb9c5a4de9422935efe5e7,5f16a3d5bf131c822978bc3a,0.30000000000000004,rick84,,,,"<div style=""width:150px;height:56px;font-size:30px;text-align:center;"">+</div><div class=""central_stim""><img src=""stimuli/O.png"" width=""30%"" style=""padding:2vmin""></div><div class=""reminder"">Press <strong>Space</strong> for <img src=""stimuli/Q.png"" width=""3%"">, not for <img src=""stimuli/O.png"" width=""3%""></div>",,"['stimuli/O.png', 'stimuli/Q.png']",main,0.0,test,1.0,1.0,14.0,1.0,
,html-keyboard-response,54,169364,0.0-7.0-0.0-2.0-0.15,5f1595f708c0591d0f724058,5deb9c5a4de9422935efe5e7,5f16a3d5bf131c822978bc3a,0.30000000000000004,rick84,,,,"<div style=""width:150px;height:56px;font-size:30px;text-align:center;"">+</div><div class=""reminder"">Press <strong>Space</strong> for <img src=""stimuli/Q.png"" width=""3%"">, not for <img src=""stimuli/O.png"" width=""3%""></div>",,,,,,,,,,
,html-keyboard-response,55,169709,0.0-7.0-0.0-2.0-1.15,5f1595f708c0591d0f724058,5deb9c5a4de9422935efe5e7,5f16a3d5bf131c822978bc3a,0.30000000000000004,rick84,344.90999998524785,,,"<div style=""width:150px;height:56px;font-size:30px;text-align:center;"">+</div><div class=""central_stim""><img src=""stimuli/Q.png"" width=""30%"" style=""padding:2vmin""></div><div class=""reminder"">Press <strong>Space</strong> for <img src=""stimuli/Q.png"" width=""3%"">, not for <img src=""stimuli/O.png"" width=""3%""></div>",32.0,"['stimuli/O.png', 'stimuli/Q.png']",main,1.0,test,1.0,1.0,15.0,1.0,
,html-keyboard-response,56,170211,0.0-7.0-0.0-2.0-0.16,5f1595f708c0591d0f724058,5deb9c5a4de9422935efe5e7,5f16a3d5bf131c822978bc3a,0.30000000000000004,rick84,,,,"<div style=""width:150px;height:56px;font-size:30px;text-align:center;"">+</div><div class=""reminder"">Press <strong>Space</strong> for <img src=""stimuli/Q.png"" width=""3%"">, not for <img src=""stimuli/O.png"" width=""3%""></div>",,,,,,,,,,
,html-keyboard-response,57,170714,0.0-7.0-0.0-2.0-1.16,5f1595f708c0591d0f724058,5deb9c5a4de9422935efe5e7,5f16a3d5bf131c822978bc3a,0.30000000000000004,rick84,,,,"<div style=""width:150px;height:56px;font-size:30px;text-align:center;"">+</div><div class=""central_stim""><img src=""stimuli/O.png"" width=""30%"" style=""padding:2vmin""></div><div class=""reminder"">Press <strong>Space</strong> for <img src=""stimuli/Q.png"" width=""3%"">, not for <img src=""stimuli/O.png"" width=""3%""></div>",,"['stimuli/O.png', 'stimuli/Q.png']",main,0.0,test,1.0,1.0,16.0,1.0,
,html-keyboard-response,58,171218,0.0-7.0-0.0-2.0-0.17,5f1595f708c0591d0f724058,5deb9c5a4de9422935efe5e7,5f16a3d5bf131c822978bc3a,0.30000000000000004,rick84,,,,"<div style=""width:150px;height:56px;font-size:30px;text-align:center;"">+</div><div class=""reminder"">Press <strong>Space</strong> for <img src=""stimuli/Q.png"" width=""3%"">, not for <img src=""stimuli/O.png"" width=""3%""></div>",,,,,,,,,,
,html-keyboard-response,59,171720,0.0-7.0-0.0-2.0-1.17,5f1595f708c0591d0f724058,5deb9c5a4de9422935efe5e7,5f16a3d5bf131c822978bc3a,0.30000000000000004,rick84,,,,"<div style=""width:150px;height:56px;font-size:30px;text-align:center;"">+</div><div class=""central_stim""><img src=""stimuli/O.png"" width=""30%"" style=""padding:2vmin""></div><div class=""reminder"">Press <strong>Space</strong> for <img src=""stimuli/Q.png"" width=""3%"">, not for <img src=""stimuli/O.png"" width=""3%""></div>",,"['stimuli/O.png', 'stimuli/Q.png']",main,0.0,test,1.0,1.0,17.0,1.0,
,html-keyboard-response,60,172223,0.0-7.0-0.0-2.0-0.18,5f1595f708c0591d0f724058,5deb9c5a4de9422935efe5e7,5f16a3d5bf131c822978bc3a,0.30000000000000004,rick84,,,,"<div style=""width:150px;height:56px;font-size:30px;text-align:center;"">+</div><div class=""reminder"">Press <strong>Space</strong> for <img src=""stimuli/Q.png"" width=""3%"">, not for <img src=""stimuli/O.png"" width=""3%""></div>",,,,,,,,,,
,html-keyboard-response,61,172522,0.0-7.0-0.0-2.0-1.18,5f1595f708c0591d0f724058,5deb9c5a4de9422935efe5e7,5f16a3d5bf131c822978bc3a,0.30000000000000004,rick84,298.7149999826215,,,"<div style=""width:150px;height:56px;font-size:30px;text-align:center;"">+</div><div class=""central_stim""><img src=""stimuli/Q.png"" width=""30%"" style=""padding:2vmin""></div><div class=""reminder"">Press <strong>Space</strong> for <img src=""stimuli/Q.png"" width=""3%"">, not for <img src=""stimuli/O.png"" width=""3%""></div>",32.0,"['stimuli/O.png', 'stimuli/Q.png']",main,1.0,test,1.0,1.0,18.0,1.0,
,html-keyboard-response,62,173025,0.0-7.0-0.0-2.0-0.19,5f1595f708c0591d0f724058,5deb9c5a4de9422935efe5e7,5f16a3d5bf131c822978bc3a,0.30000000000000004,rick84,,,,"<div style=""width:150px;height:56px;font-size:30px;text-align:center;"">+</div><div class=""reminder"">Press <strong>Space</strong> for <img src=""stimuli/Q.png"" width=""3%"">, not for <img src=""stimuli/O.png"" width=""3%""></div>",,,,,,,,,,
,html-keyboard-response,63,173445,0.0-7.0-0.0-2.0-1.19,5f1595f708c0591d0f724058,5deb9c5a4de9422935efe5e7,5f16a3d5bf131c822978bc3a,0.30000000000000004,rick84,419.00500003248453,,,"<div style=""width:150px;height:56px;font-size:30px;text-align:center;"">+</div><div class=""central_stim""><img src=""stimuli/Q.png"" width=""30%"" style=""padding:2vmin""></div><div class=""reminder"">Press <strong>Space</strong> for <img src=""stimuli/Q.png"" width=""3%"">, not for <img src=""stimuli/O.png"" width=""3%""></div>",32.0,"['stimuli/O.png', 'stimuli/Q.png']",main,1.0,test,1.0,1.0,19.0,1.0,
,html-keyboard-response,64,173947,0.0-7.0-0.0-2.0-0.20,5f1595f708c0591d0f724058,5deb9c5a4de9422935efe5e7,5f16a3d5bf131c822978bc3a,0.30000000000000004,rick84,,,,"<div style=""width:150px;height:56px;font-size:30px;text-align:center;"">+</div><div class=""reminder"">Press <strong>Space</strong> for <img src=""stimuli/Q.png"" width=""3%"">, not for <img src=""stimuli/O.png"" width=""3%""></div>",,,,,,,,,,
,html-keyboard-response,65,174452,0.0-7.0-0.0-2.0-1.20,5f1595f708c0591d0f724058,5deb9c5a4de9422935efe5e7,5f16a3d5bf131c822978bc3a,0.30000000000000004,rick84,,,,"<div style=""width:150px;height:56px;font-size:30px;text-align:center;"">+</div><div class=""central_stim""><img src=""stimuli/O.png"" width=""30%"" style=""padding:2vmin""></div><div class=""reminder"">Press <strong>Space</strong> for <img src=""stimuli/Q.png"" width=""3%"">, not for <img src=""stimuli/O.png"" width=""3%""></div>",,"['stimuli/O.png', 'stimuli/Q.png']",main,0.0,test,1.0,1.0,20.0,1.0,
,html-keyboard-response,66,174957,0.0-7.0-0.0-2.0-0.21,5f1595f708c0591d0f724058,5deb9c5a4de9422935efe5e7,5f16a3d5bf131c822978bc3a,0.30000000000000004,rick84,,,,"<div style=""width:150px;height:56px;font-size:30px;text-align:center;"">+</div><div class=""reminder"">Press <strong>Space</strong> for <img src=""stimuli/Q.png"" width=""3%"">, not for <img src=""stimuli/O.png"" width=""3%""></div>",,,,,,,,,,
,html-keyboard-response,67,175301,0.0-7.0-0.0-2.0-1.21,5f1595f708c0591d0f724058,5deb9c5a4de9422935efe5e7,5f16a3d5bf131c822978bc3a,0.30000000000000004,rick84,342.8200000198558,,,"<div style=""width:150px;height:56px;font-size:30px;text-align:center;"">+</div><div class=""central_stim""><img src=""stimuli/Q.png"" width=""30%"" style=""padding:2vmin""></div><div class=""reminder"">Press <strong>Space</strong> for <img src=""stimuli/Q.png"" width=""3%"">, not for <img src=""stimuli/O.png"" width=""3%""></div>",32.0,"['stimuli/O.png', 'stimuli/Q.png']",main,1.0,test,1.0,1.0,21.0,1.0,
,html-keyboard-response,68,175805,0.0-7.0-0.0-2.0-0.22,5f1595f708c0591d0f724058,5deb9c5a4de9422935efe5e7,5f16a3d5bf131c822978bc3a,0.30000000000000004,rick84,,,,"<div style=""width:150px;height:56px;font-size:30px;text-align:center;"">+</div><div class=""reminder"">Press <strong>Space</strong> for <img src=""stimuli/Q.png"" width=""3%"">, not for <img src=""stimuli/O.png"" width=""3%""></div>",,,,,,,,,,
,html-keyboard-response,69,176123,0.0-7.0-0.0-2.0-1.22,5f1595f708c0591d0f724058,5deb9c5a4de9422935efe5e7,5f16a3d5bf131c822978bc3a,0.30000000000000004,rick84,316.87999999849126,,,"<div style=""width:150px;height:56px;font-size:30px;text-align:center;"">+</div><div class=""central_stim""><img src=""stimuli/Q.png"" width=""30%"" style=""padding:2vmin""></div><div class=""reminder"">Press <strong>Space</strong> for <img src=""stimuli/Q.png"" width=""3%"">, not for <img src=""stimuli/O.png"" width=""3%""></div>",32.0,"['stimuli/O.png', 'stimuli/Q.png']",main,1.0,test,1.0,1.0,22.0,1.0,
,html-keyboard-response,70,176626,0.0-7.0-0.0-2.0-0.23,5f1595f708c0591d0f724058,5deb9c5a4de9422935efe5e7,5f16a3d5bf131c822978bc3a,0.30000000000000004,rick84,,,,"<div style=""width:150px;height:56px;font-size:30px;text-align:center;"">+</div><div class=""reminder"">Press <strong>Space</strong> for <img src=""stimuli/Q.png"" width=""3%"">, not for <img src=""stimuli/O.png"" width=""3%""></div>",,,,,,,,,,
,html-keyboard-response,71,176910,0.0-7.0-0.0-2.0-1.23,5f1595f708c0591d0f724058,5deb9c5a4de9422935efe5e7,5f16a3d5bf131c822978bc3a,0.30000000000000004,rick84,283.2150000031106,,,"<div style=""width:150px;height:56px;font-size:30px;text-align:center;"">+</div><div class=""central_stim""><img src=""stimuli/O.png"" width=""30%"" style=""padding:2vmin""></div><div class=""reminder"">Press <strong>Space</strong> for <img src=""stimuli/Q.png"" width=""3%"">, not for <img src=""stimuli/O.png"" width=""3%""></div>",32.0,"['stimuli/O.png', 'stimuli/Q.png']",main,0.0,test,1.0,0.0,23.0,1.0,
,html-keyboard-response,72,177411,0.0-7.0-0.0-2.0-0.24,5f1595f708c0591d0f724058,5deb9c5a4de9422935efe5e7,5f16a3d5bf131c822978bc3a,0.30000000000000004,rick84,,,,"<div style=""width:150px;height:56px;font-size:30px;text-align:center;"">+</div><div class=""reminder"">Press <strong>Space</strong> for <img src=""stimuli/Q.png"" width=""3%"">, not for <img src=""stimuli/O.png"" width=""3%""></div>",,,,,,,,,,
,html-keyboard-response,73,177914,0.0-7.0-0.0-2.0-1.24,5f1595f708c0591d0f724058,5deb9c5a4de9422935efe5e7,5f16a3d5bf131c822978bc3a,0.30000000000000004,rick84,,,,"<div style=""width:150px;height:56px;font-size:30px;text-align:center;"">+</div><div class=""central_stim""><img src=""stimuli/O.png"" width=""30%"" style=""padding:2vmin""></div><div class=""reminder"">Press <strong>Space</strong> for <img src=""stimuli/Q.png"" width=""3%"">, not for <img src=""stimuli/O.png"" width=""3%""></div>",,"['stimuli/O.png', 'stimuli/Q.png']",main,0.0,test,1.0,1.0,24.0,1.0,
,html-keyboard-response,74,178415,0.0-7.0-0.0-2.0-0.25,5f1595f708c0591d0f724058,5deb9c5a4de9422935efe5e7,5f16a3d5bf131c822978bc3a,0.30000000000000004,rick84,,,,"<div style=""width:150px;height:56px;font-size:30px;text-align:center;"">+</div><div class=""reminder"">Press <strong>Space</strong> for <img src=""stimuli/Q.png"" width=""3%"">, not for <img src=""stimuli/O.png"" width=""3%""></div>",,,,,,,,,,
,html-keyboard-response,75,178789,0.0-7.0-0.0-2.0-1.25,5f1595f708c0591d0f724058,5deb9c5a4de9422935efe5e7,5f16a3d5bf131c822978bc3a,0.30000000000000004,rick84,373.36000002687797,,,"<div style=""width:150px;height:56px;font-size:30px;text-align:center;"">+</div><div class=""central_stim""><img src=""stimuli/Q.png"" width=""30%"" style=""padding:2vmin""></div><div class=""reminder"">Press <strong>Space</strong> for <img src=""stimuli/Q.png"" width=""3%"">, not for <img src=""stimuli/O.png"" width=""3%""></div>",32.0,"['stimuli/O.png', 'stimuli/Q.png']",main,1.0,test,1.0,1.0,25.0,1.0,
,html-keyboard-response,76,179290,0.0-7.0-0.0-2.0-0.26,5f1595f708c0591d0f724058,5deb9c5a4de9422935efe5e7,5f16a3d5bf131c822978bc3a,0.30000000000000004,rick84,,,,"<div style=""width:150px;height:56px;font-size:30px;text-align:center;"">+</div><div class=""reminder"">Press <strong>Space</strong> for <img src=""stimuli/Q.png"" width=""3%"">, not for <img src=""stimuli/O.png"" width=""3%""></div>",,,,,,,,,,
,html-keyboard-response,77,179644,0.0-7.0-0.0-2.0-1.26,5f1595f708c0591d0f724058,5deb9c5a4de9422935efe5e7,5f16a3d5bf131c822978bc3a,0.30000000000000004,rick84,352.6950000086799,,,"<div style=""width:150px;height:56px;font-size:30px;text-align:center;"">+</div><div class=""central_stim""><img src=""stimuli/Q.png"" width=""30%"" style=""padding:2vmin""></div><div class=""reminder"">Press <strong>Space</strong> for <img src=""stimuli/Q.png"" width=""3%"">, not for <img src=""stimuli/O.png"" width=""3%""></div>",32.0,"['stimuli/O.png', 'stimuli/Q.png']",main,1.0,test,1.0,1.0,26.0,1.0,
,html-keyboard-response,78,180146,0.0-7.0-0.0-2.0-0.27,5f1595f708c0591d0f724058,5deb9c5a4de9422935efe5e7,5f16a3d5bf131c822978bc3a,0.30000000000000004,rick84,,,,"<div style=""width:150px;height:56px;font-size:30px;text-align:center;"">+</div><div class=""reminder"">Press <strong>Space</strong> for <img src=""stimuli/Q.png"" width=""3%"">, not for <img src=""stimuli/O.png"" width=""3%""></div>",,,,,,,,,,
,html-keyboard-response,79,180652,0.0-7.0-0.0-2.0-1.27,5f1595f708c0591d0f724058,5deb9c5a4de9422935efe5e7,5f16a3d5bf131c822978bc3a,0.30000000000000004,rick84,,,,"<div style=""width:150px;height:56px;font-size:30px;text-align:center;"">+</div><div class=""central_stim""><img src=""stimuli/O.png"" width=""30%"" style=""padding:2vmin""></div><div class=""reminder"">Press <strong>Space</strong> for <img src=""stimuli/Q.png"" width=""3%"">, not for <img src=""stimuli/O.png"" width=""3%""></div>",,"['stimuli/O.png', 'stimuli/Q.png']",main,0.0,test,1.0,1.0,27.0,1.0,
,html-keyboard-response,80,181157,0.0-7.0-0.0-2.0-0.28,5f1595f708c0591d0f724058,5deb9c5a4de9422935efe5e7,5f16a3d5bf131c822978bc3a,0.30000000000000004,rick84,,,,"<div style=""width:150px;height:56px;font-size:30px;text-align:center;"">+</div><div class=""reminder"">Press <strong>Space</strong> for <img src=""stimuli/Q.png"" width=""3%"">, not for <img src=""stimuli/O.png"" width=""3%""></div>",,,,,,,,,,
,html-keyboard-response,81,181662,0.0-7.0-0.0-2.0-1.28,5f1595f708c0591d0f724058,5deb9c5a4de9422935efe5e7,5f16a3d5bf131c822978bc3a,0.30000000000000004,rick84,,,,"<div style=""width:150px;height:56px;font-size:30px;text-align:center;"">+</div><div class=""central_stim""><img src=""stimuli/O.png"" width=""30%"" style=""padding:2vmin""></div><div class=""reminder"">Press <strong>Space</strong> for <img src=""stimuli/Q.png"" width=""3%"">, not for <img src=""stimuli/O.png"" width=""3%""></div>",,"['stimuli/O.png', 'stimuli/Q.png']",main,0.0,test,1.0,1.0,28.0,1.0,
,html-keyboard-response,82,182167,0.0-7.0-0.0-2.0-0.29,5f1595f708c0591d0f724058,5deb9c5a4de9422935efe5e7,5f16a3d5bf131c822978bc3a,0.30000000000000004,rick84,,,,"<div style=""width:150px;height:56px;font-size:30px;text-align:center;"">+</div><div class=""reminder"">Press <strong>Space</strong> for <img src=""stimuli/Q.png"" width=""3%"">, not for <img src=""stimuli/O.png"" width=""3%""></div>",,,,,,,,,,
,html-keyboard-response,83,182502,0.0-7.0-0.0-2.0-1.29,5f1595f708c0591d0f724058,5deb9c5a4de9422935efe5e7,5f16a3d5bf131c822978bc3a,0.30000000000000004,rick84,333.6450000060722,,,"<div style=""width:150px;height:56px;font-size:30px;text-align:center;"">+</div><div class=""central_stim""><img src=""stimuli/Q.png"" width=""30%"" style=""padding:2vmin""></div><div class=""reminder"">Press <strong>Space</strong> for <img src=""stimuli/Q.png"" width=""3%"">, not for <img src=""stimuli/O.png"" width=""3%""></div>",32.0,"['stimuli/O.png', 'stimuli/Q.png']",main,1.0,test,1.0,1.0,29.0,1.0,
,html-keyboard-response,84,183003,0.0-7.0-0.0-2.0-0.30,5f1595f708c0591d0f724058,5deb9c5a4de9422935efe5e7,5f16a3d5bf131c822978bc3a,0.30000000000000004,rick84,,,,"<div style=""width:150px;height:56px;font-size:30px;text-align:center;"">+</div><div class=""reminder"">Press <strong>Space</strong> for <img src=""stimuli/Q.png"" width=""3%"">, not for <img src=""stimuli/O.png"" width=""3%""></div>",,,,,,,,,,
,html-keyboard-response,85,183357,0.0-7.0-0.0-2.0-1.30,5f1595f708c0591d0f724058,5deb9c5a4de9422935efe5e7,5f16a3d5bf131c822978bc3a,0.30000000000000004,rick84,352.6549999951385,,,"<div style=""width:150px;height:56px;font-size:30px;text-align:center;"">+</div><div class=""central_stim""><img src=""stimuli/Q.png"" width=""30%"" style=""padding:2vmin""></div><div class=""reminder"">Press <strong>Space</strong> for <img src=""stimuli/Q.png"" width=""3%"">, not for <img src=""stimuli/O.png"" width=""3%""></div>",32.0,"['stimuli/O.png', 'stimuli/Q.png']",main,1.0,test,1.0,1.0,30.0,1.0,
,html-keyboard-response,86,183861,0.0-7.0-0.0-2.0-0.31,5f1595f708c0591d0f724058,5deb9c5a4de9422935efe5e7,5f16a3d5bf131c822978bc3a,0.30000000000000004,rick84,,,,"<div style=""width:150px;height:56px;font-size:30px;text-align:center;"">+</div><div class=""reminder"">Press <strong>Space</strong> for <img src=""stimuli/Q.png"" width=""3%"">, not for <img src=""stimuli/O.png"" width=""3%""></div>",,,,,,,,,,
,html-keyboard-response,87,184363,0.0-7.0-0.0-2.0-1.31,5f1595f708c0591d0f724058,5deb9c5a4de9422935efe5e7,5f16a3d5bf131c822978bc3a,0.30000000000000004,rick84,,,,"<div style=""width:150px;height:56px;font-size:30px;text-align:center;"">+</div><div class=""central_stim""><img src=""stimuli/O.png"" width=""30%"" style=""padding:2vmin""></div><div class=""reminder"">Press <strong>Space</strong> for <img src=""stimuli/Q.png"" width=""3%"">, not for <img src=""stimuli/O.png"" width=""3%""></div>",,"['stimuli/O.png', 'stimuli/Q.png']",main,0.0,test,1.0,1.0,31.0,1.0,
,instructions,88,188404,0.0-7.0-0.0-3.0,5f1595f708c0591d0f724058,5deb9c5a4de9422935efe5e7,5f16a3d5bf131c822978bc3a,0.30000000000000004,rick84,4041.0850000334904,,"[{""page_index"":0,""viewing_time"":4040.755000023637}]",,,,,,,,,,,
,instructions,89,190733,0.0-7.0-1.0-0.0,5f1595f708c0591d0f724058,5deb9c5a4de9422935efe5e7,5f16a3d5bf131c822978bc3a,0.30000000000000004,rick84,2328.205000027083,,"[{""page_index"":0,""viewing_time"":2327.945000026375}]",,,,,,,,,,,
,html-keyboard-response,90,193460,0.0-7.0-1.0-1.0-0.0,5f1595f708c0591d0f724058,5deb9c5a4de9422935efe5e7,5f16a3d5bf131c822978bc3a,0.30000000000000004,rick84,2725.7799999788404,,,"<div style=""width:150px;height:56px;font-size:30px;text-align:center;"">+</div><div class=""reminder"">Press <strong>Space</strong> for <img src=""stimuli/O.png"" width=""3%"">, not for <img src=""stimuli/Q.png"" width=""3%""></div><div class=""progress""> Press <strong>Space</strong> to start the block.</div>",32.0,"['stimuli/Q.png', 'stimuli/O.png']",prepare,,,,,,,
,html-keyboard-response,91,193963,0.0-7.0-1.0-2.0-0.0,5f1595f708c0591d0f724058,5deb9c5a4de9422935efe5e7,5f16a3d5bf131c822978bc3a,0.30000000000000004,rick84,,,,"<div style=""width:150px;height:56px;font-size:30px;text-align:center;"">+</div><div class=""reminder"">Press <strong>Space</strong> for <img src=""stimuli/O.png"" width=""3%"">, not for <img src=""stimuli/Q.png"" width=""3%""></div>",,,,,,,,,,
,html-keyboard-response,92,194304,0.0-7.0-1.0-2.0-1.0,5f1595f708c0591d0f724058,5deb9c5a4de9422935efe5e7,5f16a3d5bf131c822978bc3a,0.30000000000000004,rick84,339.8049999959767,,,"<div style=""width:150px;height:56px;font-size:30px;text-align:center;"">+</div><div class=""central_stim""><img src=""stimuli/O.png"" width=""30%"" style=""padding:2vmin""></div><div class=""reminder"">Press <strong>Space</strong> for <img src=""stimuli/O.png"" width=""3%"">, not for <img src=""stimuli/Q.png"" width=""3%""></div>",32.0,"['stimuli/Q.png', 'stimuli/O.png']",main,1.0,test,0.0,1.0,0.0,2.0,
,html-keyboard-response,93,194805,0.0-7.0-1.0-2.0-0.1,5f1595f708c0591d0f724058,5deb9c5a4de9422935efe5e7,5f16a3d5bf131c822978bc3a,0.30000000000000004,rick84,,,,"<div style=""width:150px;height:56px;font-size:30px;text-align:center;"">+</div><div class=""reminder"">Press <strong>Space</strong> for <img src=""stimuli/O.png"" width=""3%"">, not for <img src=""stimuli/Q.png"" width=""3%""></div>",,,,,,,,,,
,html-keyboard-response,94,195306,0.0-7.0-1.0-2.0-1.1,5f1595f708c0591d0f724058,5deb9c5a4de9422935efe5e7,5f16a3d5bf131c822978bc3a,0.30000000000000004,rick84,,,,"<div style=""width:150px;height:56px;font-size:30px;text-align:center;"">+</div><div class=""central_stim""><img src=""stimuli/Q.png"" width=""30%"" style=""padding:2vmin""></div><div class=""reminder"">Press <strong>Space</strong> for <img src=""stimuli/O.png"" width=""3%"">, not for <img src=""stimuli/Q.png"" width=""3%""></div>",,"['stimuli/Q.png', 'stimuli/O.png']",main,0.0,test,0.0,1.0,1.0,2.0,
,html-keyboard-response,95,195808,0.0-7.0-1.0-2.0-0.2,5f1595f708c0591d0f724058,5deb9c5a4de9422935efe5e7,5f16a3d5bf131c822978bc3a,0.30000000000000004,rick84,,,,"<div style=""width:150px;height:56px;font-size:30px;text-align:center;"">+</div><div class=""reminder"">Press <strong>Space</strong> for <img src=""stimuli/O.png"" width=""3%"">, not for <img src=""stimuli/Q.png"" width=""3%""></div>",,,,,,,,,,
,html-keyboard-response,96,196104,0.0-7.0-1.0-2.0-1.2,5f1595f708c0591d0f724058,5deb9c5a4de9422935efe5e7,5f16a3d5bf131c822978bc3a,0.30000000000000004,rick84,295.429999998305,,,"<div style=""width:150px;height:56px;font-size:30px;text-align:center;"">+</div><div class=""central_stim""><img src=""stimuli/O.png"" width=""30%"" style=""padding:2vmin""></div><div class=""reminder"">Press <strong>Space</strong> for <img src=""stimuli/O.png"" width=""3%"">, not for <img src=""stimuli/Q.png"" width=""3%""></div>",32.0,"['stimuli/Q.png', 'stimuli/O.png']",main,1.0,test,0.0,1.0,2.0,2.0,
,html-keyboard-response,97,196605,0.0-7.0-1.0-2.0-0.3,5f1595f708c0591d0f724058,5deb9c5a4de9422935efe5e7,5f16a3d5bf131c822978bc3a,0.30000000000000004,rick84,,,,"<div style=""width:150px;height:56px;font-size:30px;text-align:center;"">+</div><div class=""reminder"">Press <strong>Space</strong> for <img src=""stimuli/O.png"" width=""3%"">, not for <img src=""stimuli/Q.png"" width=""3%""></div>",,,,,,,,,,
,html-keyboard-response,98,197106,0.0-7.0-1.0-2.0-1.3,5f1595f708c0591d0f724058,5deb9c5a4de9422935efe5e7,5f16a3d5bf131c822978bc3a,0.30000000000000004,rick84,,,,"<div style=""width:150px;height:56px;font-size:30px;text-align:center;"">+</div><div class=""central_stim""><img src=""stimuli/Q.png"" width=""30%"" style=""padding:2vmin""></div><div class=""reminder"">Press <strong>Space</strong> for <img src=""stimuli/O.png"" width=""3%"">, not for <img src=""stimuli/Q.png"" width=""3%""></div>",,"['stimuli/Q.png', 'stimuli/O.png']",main,0.0,test,0.0,1.0,3.0,2.0,
,html-keyboard-response,99,197608,0.0-7.0-1.0-2.0-0.4,5f1595f708c0591d0f724058,5deb9c5a4de9422935efe5e7,5f16a3d5bf131c822978bc3a,0.30000000000000004,rick84,,,,"<div style=""width:150px;height:56px;font-size:30px;text-align:center;"">+</div><div class=""reminder"">Press <strong>Space</strong> for <img src=""stimuli/O.png"" width=""3%"">, not for <img src=""stimuli/Q.png"" width=""3%""></div>",,,,,,,,,,
,html-keyboard-response,100,197938,0.0-7.0-1.0-2.0-1.4,5f1595f708c0591d0f724058,5deb9c5a4de9422935efe5e7,5f16a3d5bf131c822978bc3a,0.30000000000000004,rick84,329.169999982696,,,"<div style=""width:150px;height:56px;font-size:30px;text-align:center;"">+</div><div class=""central_stim""><img src=""stimuli/O.png"" width=""30%"" style=""padding:2vmin""></div><div class=""reminder"">Press <strong>Space</strong> for <img src=""stimuli/O.png"" width=""3%"">, not for <img src=""stimuli/Q.png"" width=""3%""></div>",32.0,"['stimuli/Q.png', 'stimuli/O.png']",main,1.0,test,0.0,1.0,4.0,2.0,
,html-keyboard-response,101,198441,0.0-7.0-1.0-2.0-0.5,5f1595f708c0591d0f724058,5deb9c5a4de9422935efe5e7,5f16a3d5bf131c822978bc3a,0.30000000000000004,rick84,,,,"<div style=""width:150px;height:56px;font-size:30px;text-align:center;"">+</div><div class=""reminder"">Press <strong>Space</strong> for <img src=""stimuli/O.png"" width=""3%"">, not for <img src=""stimuli/Q.png"" width=""3%""></div>",,,,,,,,,,
,html-keyboard-response,102,198947,0.0-7.0-1.0-2.0-1.5,5f1595f708c0591d0f724058,5deb9c5a4de9422935efe5e7,5f16a3d5bf131c822978bc3a,0.30000000000000004,rick84,,,,"<div style=""width:150px;height:56px;font-size:30px;text-align:center;"">+</div><div class=""central_stim""><img src=""stimuli/Q.png"" width=""30%"" style=""padding:2vmin""></div><div class=""reminder"">Press <strong>Space</strong> for <img src=""stimuli/O.png"" width=""3%"">, not for <img src=""stimuli/Q.png"" width=""3%""></div>",,"['stimuli/Q.png', 'stimuli/O.png']",main,0.0,test,0.0,1.0,5.0,2.0,
,html-keyboard-response,103,199451,0.0-7.0-1.0-2.0-0.6,5f1595f708c0591d0f724058,5deb9c5a4de9422935efe5e7,5f16a3d5bf131c822978bc3a,0.30000000000000004,rick84,,,,"<div style=""width:150px;height:56px;font-size:30px;text-align:center;"">+</div><div class=""reminder"">Press <strong>Space</strong> for <img src=""stimuli/O.png"" width=""3%"">, not for <img src=""stimuli/Q.png"" width=""3%""></div>",,,,,,,,,,
,html-keyboard-response,104,199952,0.0-7.0-1.0-2.0-1.6,5f1595f708c0591d0f724058,5deb9c5a4de9422935efe5e7,5f16a3d5bf131c822978bc3a,0.30000000000000004,rick84,,,,"<div style=""width:150px;height:56px;font-size:30px;text-align:center;"">+</div><div class=""central_stim""><img src=""stimuli/Q.png"" width=""30%"" style=""padding:2vmin""></div><div class=""reminder"">Press <strong>Space</strong> for <img src=""stimuli/O.png"" width=""3%"">, not for <img src=""stimuli/Q.png"" width=""3%""></div>",,"['stimuli/Q.png', 'stimuli/O.png']",main,0.0,test,0.0,1.0,6.0,2.0,
,html-keyboard-response,105,200457,0.0-7.0-1.0-2.0-0.7,5f1595f708c0591d0f724058,5deb9c5a4de9422935efe5e7,5f16a3d5bf131c822978bc3a,0.30000000000000004,rick84,,,,"<div style=""width:150px;height:56px;font-size:30px;text-align:center;"">+</div><div class=""reminder"">Press <strong>Space</strong> for <img src=""stimuli/O.png"" width=""3%"">, not for <img src=""stimuli/Q.png"" width=""3%""></div>",,,,,,,,,,
,html-keyboard-response,106,200852,0.0-7.0-1.0-2.0-1.7,5f1595f708c0591d0f724058,5deb9c5a4de9422935efe5e7,5f16a3d5bf131c822978bc3a,0.30000000000000004,rick84,394.07999999821186,,,"<div style=""width:150px;height:56px;font-size:30px;text-align:center;"">+</div><div class=""central_stim""><img src=""stimuli/O.png"" width=""30%"" style=""padding:2vmin""></div><div class=""reminder"">Press <strong>Space</strong> for <img src=""stimuli/O.png"" width=""3%"">, not for <img src=""stimuli/Q.png"" width=""3%""></div>",32.0,"['stimuli/Q.png', 'stimuli/O.png']",main,1.0,test,0.0,1.0,7.0,2.0,
,html-keyboard-response,107,201353,0.0-7.0-1.0-2.0-0.8,5f1595f708c0591d0f724058,5deb9c5a4de9422935efe5e7,5f16a3d5bf131c822978bc3a,0.30000000000000004,rick84,,,,"<div style=""width:150px;height:56px;font-size:30px;text-align:center;"">+</div><div class=""reminder"">Press <strong>Space</strong> for <img src=""stimuli/O.png"" width=""3%"">, not for <img src=""stimuli/Q.png"" width=""3%""></div>",,,,,,,,,,
,html-keyboard-response,108,201856,0.0-7.0-1.0-2.0-1.8,5f1595f708c0591d0f724058,5deb9c5a4de9422935efe5e7,5f16a3d5bf131c822978bc3a,0.30000000000000004,rick84,,,,"<div style=""width:150px;height:56px;font-size:30px;text-align:center;"">+</div><div class=""central_stim""><img src=""stimuli/Q.png"" width=""30%"" style=""padding:2vmin""></div><div class=""reminder"">Press <strong>Space</strong> for <img src=""stimuli/O.png"" width=""3%"">, not for <img src=""stimuli/Q.png"" width=""3%""></div>",,"['stimuli/Q.png', 'stimuli/O.png']",main,0.0,test,0.0,1.0,8.0,2.0,
,html-keyboard-response,109,202362,0.0-7.0-1.0-2.0-0.9,5f1595f708c0591d0f724058,5deb9c5a4de9422935efe5e7,5f16a3d5bf131c822978bc3a,0.30000000000000004,rick84,,,,"<div style=""width:150px;height:56px;font-size:30px;text-align:center;"">+</div><div class=""reminder"">Press <strong>Space</strong> for <img src=""stimuli/O.png"" width=""3%"">, not for <img src=""stimuli/Q.png"" width=""3%""></div>",,,,,,,,,,
,html-keyboard-response,110,202742,0.0-7.0-1.0-2.0-1.9,5f1595f708c0591d0f724058,5deb9c5a4de9422935efe5e7,5f16a3d5bf131c822978bc3a,0.30000000000000004,rick84,379.4449999695644,,,"<div style=""width:150px;height:56px;font-size:30px;text-align:center;"">+</div><div class=""central_stim""><img src=""stimuli/O.png"" width=""30%"" style=""padding:2vmin""></div><div class=""reminder"">Press <strong>Space</strong> for <img src=""stimuli/O.png"" width=""3%"">, not for <img src=""stimuli/Q.png"" width=""3%""></div>",32.0,"['stimuli/Q.png', 'stimuli/O.png']",main,1.0,test,0.0,1.0,9.0,2.0,
,html-keyboard-response,111,203247,0.0-7.0-1.0-2.0-0.10,5f1595f708c0591d0f724058,5deb9c5a4de9422935efe5e7,5f16a3d5bf131c822978bc3a,0.30000000000000004,rick84,,,,"<div style=""width:150px;height:56px;font-size:30px;text-align:center;"">+</div><div class=""reminder"">Press <strong>Space</strong> for <img src=""stimuli/O.png"" width=""3%"">, not for <img src=""stimuli/Q.png"" width=""3%""></div>",,,,,,,,,,
,html-keyboard-response,112,203752,0.0-7.0-1.0-2.0-1.10,5f1595f708c0591d0f724058,5deb9c5a4de9422935efe5e7,5f16a3d5bf131c822978bc3a,0.30000000000000004,rick84,,,,"<div style=""width:150px;height:56px;font-size:30px;text-align:center;"">+</div><div class=""central_stim""><img src=""stimuli/Q.png"" width=""30%"" style=""padding:2vmin""></div><div class=""reminder"">Press <strong>Space</strong> for <img src=""stimuli/O.png"" width=""3%"">, not for <img src=""stimuli/Q.png"" width=""3%""></div>",,"['stimuli/Q.png', 'stimuli/O.png']",main,0.0,test,0.0,1.0,10.0,2.0,
,html-keyboard-response,113,204258,0.0-7.0-1.0-2.0-0.11,5f1595f708c0591d0f724058,5deb9c5a4de9422935efe5e7,5f16a3d5bf131c822978bc3a,0.30000000000000004,rick84,,,,"<div style=""width:150px;height:56px;font-size:30px;text-align:center;"">+</div><div class=""reminder"">Press <strong>Space</strong> for <img src=""stimuli/O.png"" width=""3%"">, not for <img src=""stimuli/Q.png"" width=""3%""></div>",,,,,,,,,,
,html-keyboard-response,114,204763,0.0-7.0-1.0-2.0-1.11,5f1595f708c0591d0f724058,5deb9c5a4de9422935efe5e7,5f16a3d5bf131c822978bc3a,0.30000000000000004,rick84,,,,"<div style=""width:150px;height:56px;font-size:30px;text-align:center;"">+</div><div class=""central_stim""><img src=""stimuli/Q.png"" width=""30%"" style=""padding:2vmin""></div><div class=""reminder"">Press <strong>Space</strong> for <img src=""stimuli/O.png"" width=""3%"">, not for <img src=""stimuli/Q.png"" width=""3%""></div>",,"['stimuli/Q.png', 'stimuli/O.png']",main,0.0,test,0.0,1.0,11.0,2.0,
,html-keyboard-response,115,205266,0.0-7.0-1.0-2.0-0.12,5f1595f708c0591d0f724058,5deb9c5a4de9422935efe5e7,5f16a3d5bf131c822978bc3a,0.30000000000000004,rick84,,,,"<div style=""width:150px;height:56px;font-size:30px;text-align:center;"">+</div><div class=""reminder"">Press <strong>Space</strong> for <img src=""stimuli/O.png"" width=""3%"">, not for <img src=""stimuli/Q.png"" width=""3%""></div>",,,,,,,,,,
,html-keyboard-response,116,205656,0.0-7.0-1.0-2.0-1.12,5f1595f708c0591d0f724058,5deb9c5a4de9422935efe5e7,5f16a3d5bf131c822978bc3a,0.30000000000000004,rick84,389.1200000070967,,,"<div style=""width:150px;height:56px;font-size:30px;text-align:center;"">+</div><div class=""central_stim""><img src=""stimuli/O.png"" width=""30%"" style=""padding:2vmin""></div><div class=""reminder"">Press <strong>Space</strong> for <img src=""stimuli/O.png"" width=""3%"">, not for <img src=""stimuli/Q.png"" width=""3%""></div>",32.0,"['stimuli/Q.png', 'stimuli/O.png']",main,1.0,test,0.0,1.0,12.0,2.0,
,html-keyboard-response,117,206160,0.0-7.0-1.0-2.0-0.13,5f1595f708c0591d0f724058,5deb9c5a4de9422935efe5e7,5f16a3d5bf131c822978bc3a,0.30000000000000004,rick84,,,,"<div style=""width:150px;height:56px;font-size:30px;text-align:center;"">+</div><div class=""reminder"">Press <strong>Space</strong> for <img src=""stimuli/O.png"" width=""3%"">, not for <img src=""stimuli/Q.png"" width=""3%""></div>",,,,,,,,,,
,html-keyboard-response,118,206663,0.0-7.0-1.0-2.0-1.13,5f1595f708c0591d0f724058,5deb9c5a4de9422935efe5e7,5f16a3d5bf131c822978bc3a,0.30000000000000004,rick84,,,,"<div style=""width:150px;height:56px;font-size:30px;text-align:center;"">+</div><div class=""central_stim""><img src=""stimuli/Q.png"" width=""30%"" style=""padding:2vmin""></div><div class=""reminder"">Press <strong>Space</strong> for <img src=""stimuli/O.png"" width=""3%"">, not for <img src=""stimuli/Q.png"" width=""3%""></div>",,"['stimuli/Q.png', 'stimuli/O.png']",main,0.0,test,0.0,1.0,13.0,2.0,
,html-keyboard-response,119,207165,0.0-7.0-1.0-2.0-0.14,5f1595f708c0591d0f724058,5deb9c5a4de9422935efe5e7,5f16a3d5bf131c822978bc3a,0.30000000000000004,rick84,,,,"<div style=""width:150px;height:56px;font-size:30px;text-align:center;"">+</div><div class=""reminder"">Press <strong>Space</strong> for <img src=""stimuli/O.png"" width=""3%"">, not for <img src=""stimuli/Q.png"" width=""3%""></div>",,,,,,,,,,
,html-keyboard-response,120,207456,0.0-7.0-1.0-2.0-1.14,5f1595f708c0591d0f724058,5deb9c5a4de9422935efe5e7,5f16a3d5bf131c822978bc3a,0.30000000000000004,rick84,290.82500003278255,,,"<div style=""width:150px;height:56px;font-size:30px;text-align:center;"">+</div><div class=""central_stim""><img src=""stimuli/O.png"" width=""30%"" style=""padding:2vmin""></div><div class=""reminder"">Press <strong>Space</strong> for <img src=""stimuli/O.png"" width=""3%"">, not for <img src=""stimuli/Q.png"" width=""3%""></div>",32.0,"['stimuli/Q.png', 'stimuli/O.png']",main,1.0,test,0.0,1.0,14.0,2.0,
,html-keyboard-response,121,207957,0.0-7.0-1.0-2.0-0.15,5f1595f708c0591d0f724058,5deb9c5a4de9422935efe5e7,5f16a3d5bf131c822978bc3a,0.30000000000000004,rick84,,,,"<div style=""width:150px;height:56px;font-size:30px;text-align:center;"">+</div><div class=""reminder"">Press <strong>Space</strong> for <img src=""stimuli/O.png"" width=""3%"">, not for <img src=""stimuli/Q.png"" width=""3%""></div>",,,,,,,,,,
,html-keyboard-response,122,208379,0.0-7.0-1.0-2.0-1.15,5f1595f708c0591d0f724058,5deb9c5a4de9422935efe5e7,5f16a3d5bf131c822978bc3a,0.30000000000000004,rick84,420.77999998582527,,,"<div style=""width:150px;height:56px;font-size:30px;text-align:center;"">+</div><div class=""central_stim""><img src=""stimuli/O.png"" width=""30%"" style=""padding:2vmin""></div><div class=""reminder"">Press <strong>Space</strong> for <img src=""stimuli/O.png"" width=""3%"">, not for <img src=""stimuli/Q.png"" width=""3%""></div>",32.0,"['stimuli/Q.png', 'stimuli/O.png']",main,1.0,test,0.0,1.0,15.0,2.0,
,html-keyboard-response,123,208880,0.0-7.0-1.0-2.0-0.16,5f1595f708c0591d0f724058,5deb9c5a4de9422935efe5e7,5f16a3d5bf131c822978bc3a,0.30000000000000004,rick84,,,,"<div style=""width:150px;height:56px;font-size:30px;text-align:center;"">+</div><div class=""reminder"">Press <strong>Space</strong> for <img src=""stimuli/O.png"" width=""3%"">, not for <img src=""stimuli/Q.png"" width=""3%""></div>",,,,,,,,,,
,html-keyboard-response,124,209385,0.0-7.0-1.0-2.0-1.16,5f1595f708c0591d0f724058,5deb9c5a4de9422935efe5e7,5f16a3d5bf131c822978bc3a,0.30000000000000004,rick84,,,,"<div style=""width:150px;height:56px;font-size:30px;text-align:center;"">+</div><div class=""central_stim""><img src=""stimuli/Q.png"" width=""30%"" style=""padding:2vmin""></div><div class=""reminder"">Press <strong>Space</strong> for <img src=""stimuli/O.png"" width=""3%"">, not for <img src=""stimuli/Q.png"" width=""3%""></div>",,"['stimuli/Q.png', 'stimuli/O.png']",main,0.0,test,0.0,1.0,16.0,2.0,
,html-keyboard-response,125,209891,0.0-7.0-1.0-2.0-0.17,5f1595f708c0591d0f724058,5deb9c5a4de9422935efe5e7,5f16a3d5bf131c822978bc3a,0.30000000000000004,rick84,,,,"<div style=""width:150px;height:56px;font-size:30px;text-align:center;"">+</div><div class=""reminder"">Press <strong>Space</strong> for <img src=""stimuli/O.png"" width=""3%"">, not for <img src=""stimuli/Q.png"" width=""3%""></div>",,,,,,,,,,
,html-keyboard-response,126,210397,0.0-7.0-1.0-2.0-1.17,5f1595f708c0591d0f724058,5deb9c5a4de9422935efe5e7,5f16a3d5bf131c822978bc3a,0.30000000000000004,rick84,,,,"<div style=""width:150px;height:56px;font-size:30px;text-align:center;"">+</div><div class=""central_stim""><img src=""stimuli/Q.png"" width=""30%"" style=""padding:2vmin""></div><div class=""reminder"">Press <strong>Space</strong> for <img src=""stimuli/O.png"" width=""3%"">, not for <img src=""stimuli/Q.png"" width=""3%""></div>",,"['stimuli/Q.png', 'stimuli/O.png']",main,0.0,test,0.0,1.0,17.0,2.0,
,html-keyboard-response,127,210902,0.0-7.0-1.0-2.0-0.18,5f1595f708c0591d0f724058,5deb9c5a4de9422935efe5e7,5f16a3d5bf131c822978bc3a,0.30000000000000004,rick84,,,,"<div style=""width:150px;height:56px;font-size:30px;text-align:center;"">+</div><div class=""reminder"">Press <strong>Space</strong> for <img src=""stimuli/O.png"" width=""3%"">, not for <img src=""stimuli/Q.png"" width=""3%""></div>",,,,,,,,,,
,html-keyboard-response,128,211405,0.0-7.0-1.0-2.0-1.18,5f1595f708c0591d0f724058,5deb9c5a4de9422935efe5e7,5f16a3d5bf131c822978bc3a,0.30000000000000004,rick84,,,,"<div style=""width:150px;height:56px;font-size:30px;text-align:center;"">+</div><div class=""central_stim""><img src=""stimuli/Q.png"" width=""30%"" style=""padding:2vmin""></div><div class=""reminder"">Press <strong>Space</strong> for <img src=""stimuli/O.png"" width=""3%"">, not for <img src=""stimuli/Q.png"" width=""3%""></div>",,"['stimuli/Q.png', 'stimuli/O.png']",main,0.0,test,0.0,1.0,18.0,2.0,
,html-keyboard-response,129,211906,0.0-7.0-1.0-2.0-0.19,5f1595f708c0591d0f724058,5deb9c5a4de9422935efe5e7,5f16a3d5bf131c822978bc3a,0.30000000000000004,rick84,,,,"<div style=""width:150px;height:56px;font-size:30px;text-align:center;"">+</div><div class=""reminder"">Press <strong>Space</strong> for <img src=""stimuli/O.png"" width=""3%"">, not for <img src=""stimuli/Q.png"" width=""3%""></div>",,,,,,,,,,
,html-keyboard-response,130,212272,0.0-7.0-1.0-2.0-1.19,5f1595f708c0591d0f724058,5deb9c5a4de9422935efe5e7,5f16a3d5bf131c822978bc3a,0.30000000000000004,rick84,365.0500000221655,,,"<div style=""width:150px;height:56px;font-size:30px;text-align:center;"">+</div><div class=""central_stim""><img src=""stimuli/O.png"" width=""30%"" style=""padding:2vmin""></div><div class=""reminder"">Press <strong>Space</strong> for <img src=""stimuli/O.png"" width=""3%"">, not for <img src=""stimuli/Q.png"" width=""3%""></div>",32.0,"['stimuli/Q.png', 'stimuli/O.png']",main,1.0,test,0.0,1.0,19.0,2.0,
,html-keyboard-response,131,212773,0.0-7.0-1.0-2.0-0.20,5f1595f708c0591d0f724058,5deb9c5a4de9422935efe5e7,5f16a3d5bf131c822978bc3a,0.30000000000000004,rick84,,,,"<div style=""width:150px;height:56px;font-size:30px;text-align:center;"">+</div><div class=""reminder"">Press <strong>Space</strong> for <img src=""stimuli/O.png"" width=""3%"">, not for <img src=""stimuli/Q.png"" width=""3%""></div>",,,,,,,,,,
,html-keyboard-response,132,213278,0.0-7.0-1.0-2.0-1.20,5f1595f708c0591d0f724058,5deb9c5a4de9422935efe5e7,5f16a3d5bf131c822978bc3a,0.30000000000000004,rick84,,,,"<div style=""width:150px;height:56px;font-size:30px;text-align:center;"">+</div><div class=""central_stim""><img src=""stimuli/Q.png"" width=""30%"" style=""padding:2vmin""></div><div class=""reminder"">Press <strong>Space</strong> for <img src=""stimuli/O.png"" width=""3%"">, not for <img src=""stimuli/Q.png"" width=""3%""></div>",,"['stimuli/Q.png', 'stimuli/O.png']",main,0.0,test,0.0,1.0,20.0,2.0,
,html-keyboard-response,133,213779,0.0-7.0-1.0-2.0-0.21,5f1595f708c0591d0f724058,5deb9c5a4de9422935efe5e7,5f16a3d5bf131c822978bc3a,0.30000000000000004,rick84,,,,"<div style=""width:150px;height:56px;font-size:30px;text-align:center;"">+</div><div class=""reminder"">Press <strong>Space</strong> for <img src=""stimuli/O.png"" width=""3%"">, not for <img src=""stimuli/Q.png"" width=""3%""></div>",,,,,,,,,,
,html-keyboard-response,134,214139,0.0-7.0-1.0-2.0-1.21,5f1595f708c0591d0f724058,5deb9c5a4de9422935efe5e7,5f16a3d5bf131c822978bc3a,0.30000000000000004,rick84,359.83499995199963,,,"<div style=""width:150px;height:56px;font-size:30px;text-align:center;"">+</div><div class=""central_stim""><img src=""stimuli/O.png"" width=""30%"" style=""padding:2vmin""></div><div class=""reminder"">Press <strong>Space</strong> for <img src=""stimuli/O.png"" width=""3%"">, not for <img src=""stimuli/Q.png"" width=""3%""></div>",32.0,"['stimuli/Q.png', 'stimuli/O.png']",main,1.0,test,0.0,1.0,21.0,2.0,
,html-keyboard-response,135,214641,0.0-7.0-1.0-2.0-0.22,5f1595f708c0591d0f724058,5deb9c5a4de9422935efe5e7,5f16a3d5bf131c822978bc3a,0.30000000000000004,rick84,,,,"<div style=""width:150px;height:56px;font-size:30px;text-align:center;"">+</div><div class=""reminder"">Press <strong>Space</strong> for <img src=""stimuli/O.png"" width=""3%"">, not for <img src=""stimuli/Q.png"" width=""3%""></div>",,,,,,,,,,
,html-keyboard-response,136,214961,0.0-7.0-1.0-2.0-1.22,5f1595f708c0591d0f724058,5deb9c5a4de9422935efe5e7,5f16a3d5bf131c822978bc3a,0.30000000000000004,rick84,319.30500001180917,,,"<div style=""width:150px;height:56px;font-size:30px;text-align:center;"">+</div><div class=""central_stim""><img src=""stimuli/O.png"" width=""30%"" style=""padding:2vmin""></div><div class=""reminder"">Press <strong>Space</strong> for <img src=""stimuli/O.png"" width=""3%"">, not for <img src=""stimuli/Q.png"" width=""3%""></div>",32.0,"['stimuli/Q.png', 'stimuli/O.png']",main,1.0,test,0.0,1.0,22.0,2.0,
,html-keyboard-response,137,215463,0.0-7.0-1.0-2.0-0.23,5f1595f708c0591d0f724058,5deb9c5a4de9422935efe5e7,5f16a3d5bf131c822978bc3a,0.30000000000000004,rick84,,,,"<div style=""width:150px;height:56px;font-size:30px;text-align:center;"">+</div><div class=""reminder"">Press <strong>Space</strong> for <img src=""stimuli/O.png"" width=""3%"">, not for <img src=""stimuli/Q.png"" width=""3%""></div>",,,,,,,,,,
,html-keyboard-response,138,215771,0.0-7.0-1.0-2.0-1.23,5f1595f708c0591d0f724058,5deb9c5a4de9422935efe5e7,5f16a3d5bf131c822978bc3a,0.30000000000000004,rick84,306.7649999866262,,,"<div style=""width:150px;height:56px;font-size:30px;text-align:center;"">+</div><div class=""central_stim""><img src=""stimuli/O.png"" width=""30%"" style=""padding:2vmin""></div><div class=""reminder"">Press <strong>Space</strong> for <img src=""stimuli/O.png"" width=""3%"">, not for <img src=""stimuli/Q.png"" width=""3%""></div>",32.0,"['stimuli/Q.png', 'stimuli/O.png']",main,1.0,test,0.0,1.0,23.0,2.0,
,html-keyboard-response,139,216273,0.0-7.0-1.0-2.0-0.24,5f1595f708c0591d0f724058,5deb9c5a4de9422935efe5e7,5f16a3d5bf131c822978bc3a,0.30000000000000004,rick84,,,,"<div style=""width:150px;height:56px;font-size:30px;text-align:center;"">+</div><div class=""reminder"">Press <strong>Space</strong> for <img src=""stimuli/O.png"" width=""3%"">, not for <img src=""stimuli/Q.png"" width=""3%""></div>",,,,,,,,,,
,html-keyboard-response,140,216581,0.0-7.0-1.0-2.0-1.24,5f1595f708c0591d0f724058,5deb9c5a4de9422935efe5e7,5f16a3d5bf131c822978bc3a,0.30000000000000004,rick84,306.99999997159466,,,"<div style=""width:150px;height:56px;font-size:30px;text-align:center;"">+</div><div class=""central_stim""><img src=""stimuli/O.png"" width=""30%"" style=""padding:2vmin""></div><div class=""reminder"">Press <strong>Space</strong> for <img src=""stimuli/O.png"" width=""3%"">, not for <img src=""stimuli/Q.png"" width=""3%""></div>",32.0,"['stimuli/Q.png', 'stimuli/O.png']",main,1.0,test,0.0,1.0,24.0,2.0,
,html-keyboard-response,141,217085,0.0-7.0-1.0-2.0-0.25,5f1595f708c0591d0f724058,5deb9c5a4de9422935efe5e7,5f16a3d5bf131c822978bc3a,0.30000000000000004,rick84,,,,"<div style=""width:150px;height:56px;font-size:30px;text-align:center;"">+</div><div class=""reminder"">Press <strong>Space</strong> for <img src=""stimuli/O.png"" width=""3%"">, not for <img src=""stimuli/Q.png"" width=""3%""></div>",,,,,,,,,,
,html-keyboard-response,142,217346,0.0-7.0-1.0-2.0-1.25,5f1595f708c0591d0f724058,5deb9c5a4de9422935efe5e7,5f16a3d5bf131c822978bc3a,0.30000000000000004,rick84,259.93499998003244,,,"<div style=""width:150px;height:56px;font-size:30px;text-align:center;"">+</div><div class=""central_stim""><img src=""stimuli/Q.png"" width=""30%"" style=""padding:2vmin""></div><div class=""reminder"">Press <strong>Space</strong> for <img src=""stimuli/O.png"" width=""3%"">, not for <img src=""stimuli/Q.png"" width=""3%""></div>",32.0,"['stimuli/Q.png', 'stimuli/O.png']",main,0.0,test,0.0,0.0,25.0,2.0,
,html-keyboard-response,143,217851,0.0-7.0-1.0-2.0-0.26,5f1595f708c0591d0f724058,5deb9c5a4de9422935efe5e7,5f16a3d5bf131c822978bc3a,0.30000000000000004,rick84,,,,"<div style=""width:150px;height:56px;font-size:30px;text-align:center;"">+</div><div class=""reminder"">Press <strong>Space</strong> for <img src=""stimuli/O.png"" width=""3%"">, not for <img src=""stimuli/Q.png"" width=""3%""></div>",,,,,,,,,,
,html-keyboard-response,144,218356,0.0-7.0-1.0-2.0-1.26,5f1595f708c0591d0f724058,5deb9c5a4de9422935efe5e7,5f16a3d5bf131c822978bc3a,0.30000000000000004,rick84,,,,"<div style=""width:150px;height:56px;font-size:30px;text-align:center;"">+</div><div class=""central_stim""><img src=""stimuli/Q.png"" width=""30%"" style=""padding:2vmin""></div><div class=""reminder"">Press <strong>Space</strong> for <img src=""stimuli/O.png"" width=""3%"">, not for <img src=""stimuli/Q.png"" width=""3%""></div>",,"['stimuli/Q.png', 'stimuli/O.png']",main,0.0,test,0.0,1.0,26.0,2.0,
,html-keyboard-response,145,218862,0.0-7.0-1.0-2.0-0.27,5f1595f708c0591d0f724058,5deb9c5a4de9422935efe5e7,5f16a3d5bf131c822978bc3a,0.30000000000000004,rick84,,,,"<div style=""width:150px;height:56px;font-size:30px;text-align:center;"">+</div><div class=""reminder"">Press <strong>Space</strong> for <img src=""stimuli/O.png"" width=""3%"">, not for <img src=""stimuli/Q.png"" width=""3%""></div>",,,,,,,,,,
,html-keyboard-response,146,219225,0.0-7.0-1.0-2.0-1.27,5f1595f708c0591d0f724058,5deb9c5a4de9422935efe5e7,5f16a3d5bf131c822978bc3a,0.30000000000000004,rick84,362.10500000743195,,,"<div style=""width:150px;height:56px;font-size:30px;text-align:center;"">+</div><div class=""central_stim""><img src=""stimuli/O.png"" width=""30%"" style=""padding:2vmin""></div><div class=""reminder"">Press <strong>Space</strong> for <img src=""stimuli/O.png"" width=""3%"">, not for <img src=""stimuli/Q.png"" width=""3%""></div>",32.0,"['stimuli/Q.png', 'stimuli/O.png']",main,1.0,test,0.0,1.0,27.0,2.0,
,html-keyboard-response,147,219726,0.0-7.0-1.0-2.0-0.28,5f1595f708c0591d0f724058,5deb9c5a4de9422935efe5e7,5f16a3d5bf131c822978bc3a,0.30000000000000004,rick84,,,,"<div style=""width:150px;height:56px;font-size:30px;text-align:center;"">+</div><div class=""reminder"">Press <strong>Space</strong> for <img src=""stimuli/O.png"" width=""3%"">, not for <img src=""stimuli/Q.png"" width=""3%""></div>",,,,,,,,,,
,html-keyboard-response,148,220102,0.0-7.0-1.0-2.0-1.28,5f1595f708c0591d0f724058,5deb9c5a4de9422935efe5e7,5f16a3d5bf131c822978bc3a,0.30000000000000004,rick84,376.08499999623746,,,"<div style=""width:150px;height:56px;font-size:30px;text-align:center;"">+</div><div class=""central_stim""><img src=""stimuli/O.png"" width=""30%"" style=""padding:2vmin""></div><div class=""reminder"">Press <strong>Space</strong> for <img src=""stimuli/O.png"" width=""3%"">, not for <img src=""stimuli/Q.png"" width=""3%""></div>",32.0,"['stimuli/Q.png', 'stimuli/O.png']",main,1.0,test,0.0,1.0,28.0,2.0,
,html-keyboard-response,149,220603,0.0-7.0-1.0-2.0-0.29,5f1595f708c0591d0f724058,5deb9c5a4de9422935efe5e7,5f16a3d5bf131c822978bc3a,0.30000000000000004,rick84,,,,"<div style=""width:150px;height:56px;font-size:30px;text-align:center;"">+</div><div class=""reminder"">Press <strong>Space</strong> for <img src=""stimuli/O.png"" width=""3%"">, not for <img src=""stimuli/Q.png"" width=""3%""></div>",,,,,,,,,,
,html-keyboard-response,150,221104,0.0-7.0-1.0-2.0-1.29,5f1595f708c0591d0f724058,5deb9c5a4de9422935efe5e7,5f16a3d5bf131c822978bc3a,0.30000000000000004,rick84,,,,"<div style=""width:150px;height:56px;font-size:30px;text-align:center;"">+</div><div class=""central_stim""><img src=""stimuli/Q.png"" width=""30%"" style=""padding:2vmin""></div><div class=""reminder"">Press <strong>Space</strong> for <img src=""stimuli/O.png"" width=""3%"">, not for <img src=""stimuli/Q.png"" width=""3%""></div>",,"['stimuli/Q.png', 'stimuli/O.png']",main,0.0,test,0.0,1.0,29.0,2.0,
,html-keyboard-response,151,221605,0.0-7.0-1.0-2.0-0.30,5f1595f708c0591d0f724058,5deb9c5a4de9422935efe5e7,5f16a3d5bf131c822978bc3a,0.30000000000000004,rick84,,,,"<div style=""width:150px;height:56px;font-size:30px;text-align:center;"">+</div><div class=""reminder"">Press <strong>Space</strong> for <img src=""stimuli/O.png"" width=""3%"">, not for <img src=""stimuli/Q.png"" width=""3%""></div>",,,,,,,,,,
,html-keyboard-response,152,221880,0.0-7.0-1.0-2.0-1.30,5f1595f708c0591d0f724058,5deb9c5a4de9422935efe5e7,5f16a3d5bf131c822978bc3a,0.30000000000000004,rick84,273.8899999530986,,,"<div style=""width:150px;height:56px;font-size:30px;text-align:center;"">+</div><div class=""central_stim""><img src=""stimuli/O.png"" width=""30%"" style=""padding:2vmin""></div><div class=""reminder"">Press <strong>Space</strong> for <img src=""stimuli/O.png"" width=""3%"">, not for <img src=""stimuli/Q.png"" width=""3%""></div>",32.0,"['stimuli/Q.png', 'stimuli/O.png']",main,1.0,test,0.0,1.0,30.0,2.0,
,html-keyboard-response,153,222382,0.0-7.0-1.0-2.0-0.31,5f1595f708c0591d0f724058,5deb9c5a4de9422935efe5e7,5f16a3d5bf131c822978bc3a,0.30000000000000004,rick84,,,,"<div style=""width:150px;height:56px;font-size:30px;text-align:center;"">+</div><div class=""reminder"">Press <strong>Space</strong> for <img src=""stimuli/O.png"" width=""3%"">, not for <img src=""stimuli/Q.png"" width=""3%""></div>",,,,,,,,,,
,html-keyboard-response,154,222886,0.0-7.0-1.0-2.0-1.31,5f1595f708c0591d0f724058,5deb9c5a4de9422935efe5e7,5f16a3d5bf131c822978bc3a,0.30000000000000004,rick84,,,,"<div style=""width:150px;height:56px;font-size:30px;text-align:center;"">+</div><div class=""central_stim""><img src=""stimuli/Q.png"" width=""30%"" style=""padding:2vmin""></div><div class=""reminder"">Press <strong>Space</strong> for <img src=""stimuli/O.png"" width=""3%"">, not for <img src=""stimuli/Q.png"" width=""3%""></div>",,"['stimuli/Q.png', 'stimuli/O.png']",main,0.0,test,0.0,1.0,31.0,2.0,
,instructions,155,230899,0.0-7.0-1.0-3.0,5f1595f708c0591d0f724058,5deb9c5a4de9422935efe5e7,5f16a3d5bf131c822978bc3a,0.30000000000000004,rick84,8012.325000017881,,"[{""page_index"":0,""viewing_time"":8012.045000039507}]",,,,,,,,,,,
,instructions,156,233386,0.0-7.0-0.1-0.1,5f1595f708c0591d0f724058,5deb9c5a4de9422935efe5e7,5f16a3d5bf131c822978bc3a,0.30000000000000004,rick84,2485.8250000397675,,"[{""page_index"":0,""viewing_time"":2485.515000007581}]",,,,,,,,,,,
,html-keyboard-response,157,235831,0.0-7.0-0.1-1.1-0.1,5f1595f708c0591d0f724058,5deb9c5a4de9422935efe5e7,5f16a3d5bf131c822978bc3a,0.30000000000000004,rick84,2443.6400000122376,,,"<div style=""width:150px;height:56px;font-size:30px;text-align:center;"">+</div><div class=""reminder"">Press <strong>Space</strong> for <img src=""stimuli/Q.png"" width=""3%"">, not for <img src=""stimuli/O.png"" width=""3%""></div><div class=""progress""> Press <strong>Space</strong> to start the block.</div>",32.0,"['stimuli/O.png', 'stimuli/Q.png']",prepare,,,,,,,
,html-keyboard-response,158,236336,0.0-7.0-0.1-2.1-0.32,5f1595f708c0591d0f724058,5deb9c5a4de9422935efe5e7,5f16a3d5bf131c822978bc3a,0.30000000000000004,rick84,,,,"<div style=""width:150px;height:56px;font-size:30px;text-align:center;"">+</div><div class=""reminder"">Press <strong>Space</strong> for <img src=""stimuli/Q.png"" width=""3%"">, not for <img src=""stimuli/O.png"" width=""3%""></div>",,,,,,,,,,
,html-keyboard-response,159,236837,0.0-7.0-0.1-2.1-1.32,5f1595f708c0591d0f724058,5deb9c5a4de9422935efe5e7,5f16a3d5bf131c822978bc3a,0.30000000000000004,rick84,,,,"<div style=""width:150px;height:56px;font-size:30px;text-align:center;"">+</div><div class=""central_stim""><img src=""stimuli/O.png"" width=""30%"" style=""padding:2vmin""></div><div class=""reminder"">Press <strong>Space</strong> for <img src=""stimuli/Q.png"" width=""3%"">, not for <img src=""stimuli/O.png"" width=""3%""></div>",,"['stimuli/O.png', 'stimuli/Q.png']",main,0.0,test,1.0,1.0,0.0,3.0,
,html-keyboard-response,160,237342,0.0-7.0-0.1-2.1-0.33,5f1595f708c0591d0f724058,5deb9c5a4de9422935efe5e7,5f16a3d5bf131c822978bc3a,0.30000000000000004,rick84,,,,"<div style=""width:150px;height:56px;font-size:30px;text-align:center;"">+</div><div class=""reminder"">Press <strong>Space</strong> for <img src=""stimuli/Q.png"" width=""3%"">, not for <img src=""stimuli/O.png"" width=""3%""></div>",,,,,,,,,,
,html-keyboard-response,161,237541,0.0-7.0-0.1-2.1-1.33,5f1595f708c0591d0f724058,5deb9c5a4de9422935efe5e7,5f16a3d5bf131c822978bc3a,0.30000000000000004,rick84,198.60499998321757,,,"<div style=""width:150px;height:56px;font-size:30px;text-align:center;"">+</div><div class=""central_stim""><img src=""stimuli/Q.png"" width=""30%"" style=""padding:2vmin""></div><div class=""reminder"">Press <strong>Space</strong> for <img src=""stimuli/Q.png"" width=""3%"">, not for <img src=""stimuli/O.png"" width=""3%""></div>",32.0,"['stimuli/O.png', 'stimuli/Q.png']",main,1.0,test,1.0,1.0,1.0,3.0,
,html-keyboard-response,162,238046,0.0-7.0-0.1-2.1-0.34,5f1595f708c0591d0f724058,5deb9c5a4de9422935efe5e7,5f16a3d5bf131c822978bc3a,0.30000000000000004,rick84,,,,"<div style=""width:150px;height:56px;font-size:30px;text-align:center;"">+</div><div class=""reminder"">Press <strong>Space</strong> for <img src=""stimuli/Q.png"" width=""3%"">, not for <img src=""stimuli/O.png"" width=""3%""></div>",,,,,,,,,,
,html-keyboard-response,163,238374,0.0-7.0-0.1-2.1-1.34,5f1595f708c0591d0f724058,5deb9c5a4de9422935efe5e7,5f16a3d5bf131c822978bc3a,0.30000000000000004,rick84,326.95500005502254,,,"<div style=""width:150px;height:56px;font-size:30px;text-align:center;"">+</div><div class=""central_stim""><img src=""stimuli/Q.png"" width=""30%"" style=""padding:2vmin""></div><div class=""reminder"">Press <strong>Space</strong> for <img src=""stimuli/Q.png"" width=""3%"">, not for <img src=""stimuli/O.png"" width=""3%""></div>",32.0,"['stimuli/O.png', 'stimuli/Q.png']",main,1.0,test,1.0,1.0,2.0,3.0,
,html-keyboard-response,164,238877,0.0-7.0-0.1-2.1-0.35,5f1595f708c0591d0f724058,5deb9c5a4de9422935efe5e7,5f16a3d5bf131c822978bc3a,0.30000000000000004,rick84,,,,"<div style=""width:150px;height:56px;font-size:30px;text-align:center;"">+</div><div class=""reminder"">Press <strong>Space</strong> for <img src=""stimuli/Q.png"" width=""3%"">, not for <img src=""stimuli/O.png"" width=""3%""></div>",,,,,,,,,,
,html-keyboard-response,165,239229,0.0-7.0-0.1-2.1-1.35,5f1595f708c0591d0f724058,5deb9c5a4de9422935efe5e7,5f16a3d5bf131c822978bc3a,0.30000000000000004,rick84,350.8400000282563,,,"<div style=""width:150px;height:56px;font-size:30px;text-align:center;"">+</div><div class=""central_stim""><img src=""stimuli/O.png"" width=""30%"" style=""padding:2vmin""></div><div class=""reminder"">Press <strong>Space</strong> for <img src=""stimuli/Q.png"" width=""3%"">, not for <img src=""stimuli/O.png"" width=""3%""></div>",32.0,"['stimuli/O.png', 'stimuli/Q.png']",main,0.0,test,1.0,0.0,3.0,3.0,
,html-keyboard-response,166,239730,0.0-7.0-0.1-2.1-0.36,5f1595f708c0591d0f724058,5deb9c5a4de9422935efe5e7,5f16a3d5bf131c822978bc3a,0.30000000000000004,rick84,,,,"<div style=""width:150px;height:56px;font-size:30px;text-align:center;"">+</div><div class=""reminder"">Press <strong>Space</strong> for <img src=""stimuli/Q.png"" width=""3%"">, not for <img src=""stimuli/O.png"" width=""3%""></div>",,,,,,,,,,
,html-keyboard-response,167,240231,0.0-7.0-0.1-2.1-1.36,5f1595f708c0591d0f724058,5deb9c5a4de9422935efe5e7,5f16a3d5bf131c822978bc3a,0.30000000000000004,rick84,,,,"<div style=""width:150px;height:56px;font-size:30px;text-align:center;"">+</div><div class=""central_stim""><img src=""stimuli/O.png"" width=""30%"" style=""padding:2vmin""></div><div class=""reminder"">Press <strong>Space</strong> for <img src=""stimuli/Q.png"" width=""3%"">, not for <img src=""stimuli/O.png"" width=""3%""></div>",,"['stimuli/O.png', 'stimuli/Q.png']",main,0.0,test,1.0,1.0,4.0,3.0,
,html-keyboard-response,168,240736,0.0-7.0-0.1-2.1-0.37,5f1595f708c0591d0f724058,5deb9c5a4de9422935efe5e7,5f16a3d5bf131c822978bc3a,0.30000000000000004,rick84,,,,"<div style=""width:150px;height:56px;font-size:30px;text-align:center;"">+</div><div class=""reminder"">Press <strong>Space</strong> for <img src=""stimuli/Q.png"" width=""3%"">, not for <img src=""stimuli/O.png"" width=""3%""></div>",,,,,,,,,,
,html-keyboard-response,169,241240,0.0-7.0-0.1-2.1-1.37,5f1595f708c0591d0f724058,5deb9c5a4de9422935efe5e7,5f16a3d5bf131c822978bc3a,0.30000000000000004,rick84,,,,"<div style=""width:150px;height:56px;font-size:30px;text-align:center;"">+</div><div class=""central_stim""><img src=""stimuli/O.png"" width=""30%"" style=""padding:2vmin""></div><div class=""reminder"">Press <strong>Space</strong> for <img src=""stimuli/Q.png"" width=""3%"">, not for <img src=""stimuli/O.png"" width=""3%""></div>",,"['stimuli/O.png', 'stimuli/Q.png']",main,0.0,test,1.0,1.0,5.0,3.0,
,html-keyboard-response,170,241745,0.0-7.0-0.1-2.1-0.38,5f1595f708c0591d0f724058,5deb9c5a4de9422935efe5e7,5f16a3d5bf131c822978bc3a,0.30000000000000004,rick84,,,,"<div style=""width:150px;height:56px;font-size:30px;text-align:center;"">+</div><div class=""reminder"">Press <strong>Space</strong> for <img src=""stimuli/Q.png"" width=""3%"">, not for <img src=""stimuli/O.png"" width=""3%""></div>",,,,,,,,,,
,html-keyboard-response,171,241986,0.0-7.0-0.1-2.1-1.38,5f1595f708c0591d0f724058,5deb9c5a4de9422935efe5e7,5f16a3d5bf131c822978bc3a,0.30000000000000004,rick84,240.1100000133738,,,"<div style=""width:150px;height:56px;font-size:30px;text-align:center;"">+</div><div class=""central_stim""><img src=""stimuli/Q.png"" width=""30%"" style=""padding:2vmin""></div><div class=""reminder"">Press <strong>Space</strong> for <img src=""stimuli/Q.png"" width=""3%"">, not for <img src=""stimuli/O.png"" width=""3%""></div>",32.0,"['stimuli/O.png', 'stimuli/Q.png']",main,1.0,test,1.0,1.0,6.0,3.0,
,html-keyboard-response,172,242486,0.0-7.0-0.1-2.1-0.39,5f1595f708c0591d0f724058,5deb9c5a4de9422935efe5e7,5f16a3d5bf131c822978bc3a,0.30000000000000004,rick84,,,,"<div style=""width:150px;height:56px;font-size:30px;text-align:center;"">+</div><div class=""reminder"">Press <strong>Space</strong> for <img src=""stimuli/Q.png"" width=""3%"">, not for <img src=""stimuli/O.png"" width=""3%""></div>",,,,,,,,,,
,html-keyboard-response,173,242841,0.0-7.0-0.1-2.1-1.39,5f1595f708c0591d0f724058,5deb9c5a4de9422935efe5e7,5f16a3d5bf131c822978bc3a,0.30000000000000004,rick84,353.53999998187646,,,"<div style=""width:150px;height:56px;font-size:30px;text-align:center;"">+</div><div class=""central_stim""><img src=""stimuli/Q.png"" width=""30%"" style=""padding:2vmin""></div><div class=""reminder"">Press <strong>Space</strong> for <img src=""stimuli/Q.png"" width=""3%"">, not for <img src=""stimuli/O.png"" width=""3%""></div>",32.0,"['stimuli/O.png', 'stimuli/Q.png']",main,1.0,test,1.0,1.0,7.0,3.0,
,html-keyboard-response,174,243342,0.0-7.0-0.1-2.1-0.40,5f1595f708c0591d0f724058,5deb9c5a4de9422935efe5e7,5f16a3d5bf131c822978bc3a,0.30000000000000004,rick84,,,,"<div style=""width:150px;height:56px;font-size:30px;text-align:center;"">+</div><div class=""reminder"">Press <strong>Space</strong> for <img src=""stimuli/Q.png"" width=""3%"">, not for <img src=""stimuli/O.png"" width=""3%""></div>",,,,,,,,,,
,html-keyboard-response,175,243846,0.0-7.0-0.1-2.1-1.40,5f1595f708c0591d0f724058,5deb9c5a4de9422935efe5e7,5f16a3d5bf131c822978bc3a,0.30000000000000004,rick84,,,,"<div style=""width:150px;height:56px;font-size:30px;text-align:center;"">+</div><div class=""central_stim""><img src=""stimuli/O.png"" width=""30%"" style=""padding:2vmin""></div><div class=""reminder"">Press <strong>Space</strong> for <img src=""stimuli/Q.png"" width=""3%"">, not for <img src=""stimuli/O.png"" width=""3%""></div>",,"['stimuli/O.png', 'stimuli/Q.png']",main,0.0,test,1.0,1.0,8.0,3.0,
,html-keyboard-response,176,244349,0.0-7.0-0.1-2.1-0.41,5f1595f708c0591d0f724058,5deb9c5a4de9422935efe5e7,5f16a3d5bf131c822978bc3a,0.30000000000000004,rick84,,,,"<div style=""width:150px;height:56px;font-size:30px;text-align:center;"">+</div><div class=""reminder"">Press <strong>Space</strong> for <img src=""stimuli/Q.png"" width=""3%"">, not for <img src=""stimuli/O.png"" width=""3%""></div>",,,,,,,,,,
,html-keyboard-response,177,244652,0.0-7.0-0.1-2.1-1.41,5f1595f708c0591d0f724058,5deb9c5a4de9422935efe5e7,5f16a3d5bf131c822978bc3a,0.30000000000000004,rick84,302.0799999940209,,,"<div style=""width:150px;height:56px;font-size:30px;text-align:center;"">+</div><div class=""central_stim""><img src=""stimuli/Q.png"" width=""30%"" style=""padding:2vmin""></div><div class=""reminder"">Press <strong>Space</strong> for <img src=""stimuli/Q.png"" width=""3%"">, not for <img src=""stimuli/O.png"" width=""3%""></div>",32.0,"['stimuli/O.png', 'stimuli/Q.png']",main,1.0,test,1.0,1.0,9.0,3.0,
,html-keyboard-response,178,245153,0.0-7.0-0.1-2.1-0.42,5f1595f708c0591d0f724058,5deb9c5a4de9422935efe5e7,5f16a3d5bf131c822978bc3a,0.30000000000000004,rick84,,,,"<div style=""width:150px;height:56px;font-size:30px;text-align:center;"">+</div><div class=""reminder"">Press <strong>Space</strong> for <img src=""stimuli/Q.png"" width=""3%"">, not for <img src=""stimuli/O.png"" width=""3%""></div>",,,,,,,,,,
,html-keyboard-response,179,245658,0.0-7.0-0.1-2.1-1.42,5f1595f708c0591d0f724058,5deb9c5a4de9422935efe5e7,5f16a3d5bf131c822978bc3a,0.30000000000000004,rick84,,,,"<div style=""width:150px;height:56px;font-size:30px;text-align:center;"">+</div><div class=""central_stim""><img src=""stimuli/O.png"" width=""30%"" style=""padding:2vmin""></div><div class=""reminder"">Press <strong>Space</strong> for <img src=""stimuli/Q.png"" width=""3%"">, not for <img src=""stimuli/O.png"" width=""3%""></div>",,"['stimuli/O.png', 'stimuli/Q.png']",main,0.0,test,1.0,1.0,10.0,3.0,
,html-keyboard-response,180,246162,0.0-7.0-0.1-2.1-0.43,5f1595f708c0591d0f724058,5deb9c5a4de9422935efe5e7,5f16a3d5bf131c822978bc3a,0.30000000000000004,rick84,,,,"<div style=""width:150px;height:56px;font-size:30px;text-align:center;"">+</div><div class=""reminder"">Press <strong>Space</strong> for <img src=""stimuli/Q.png"" width=""3%"">, not for <img src=""stimuli/O.png"" width=""3%""></div>",,,,,,,,,,
,html-keyboard-response,181,246430,0.0-7.0-0.1-2.1-1.43,5f1595f708c0591d0f724058,5deb9c5a4de9422935efe5e7,5f16a3d5bf131c822978bc3a,0.30000000000000004,rick84,267.0450000441633,,,"<div style=""width:150px;height:56px;font-size:30px;text-align:center;"">+</div><div class=""central_stim""><img src=""stimuli/Q.png"" width=""30%"" style=""padding:2vmin""></div><div class=""reminder"">Press <strong>Space</strong> for <img src=""stimuli/Q.png"" width=""3%"">, not for <img src=""stimuli/O.png"" width=""3%""></div>",32.0,"['stimuli/O.png', 'stimuli/Q.png']",main,1.0,test,1.0,1.0,11.0,3.0,
,html-keyboard-response,182,246933,0.0-7.0-0.1-2.1-0.44,5f1595f708c0591d0f724058,5deb9c5a4de9422935efe5e7,5f16a3d5bf131c822978bc3a,0.30000000000000004,rick84,,,,"<div style=""width:150px;height:56px;font-size:30px;text-align:center;"">+</div><div class=""reminder"">Press <strong>Space</strong> for <img src=""stimuli/Q.png"" width=""3%"">, not for <img src=""stimuli/O.png"" width=""3%""></div>",,,,,,,,,,
,html-keyboard-response,183,247435,0.0-7.0-0.1-2.1-1.44,5f1595f708c0591d0f724058,5deb9c5a4de9422935efe5e7,5f16a3d5bf131c822978bc3a,0.30000000000000004,rick84,,,,"<div style=""width:150px;height:56px;font-size:30px;text-align:center;"">+</div><div class=""central_stim""><img src=""stimuli/O.png"" width=""30%"" style=""padding:2vmin""></div><div class=""reminder"">Press <strong>Space</strong> for <img src=""stimuli/Q.png"" width=""3%"">, not for <img src=""stimuli/O.png"" width=""3%""></div>",,"['stimuli/O.png', 'stimuli/Q.png']",main,0.0,test,1.0,1.0,12.0,3.0,
,html-keyboard-response,184,247939,0.0-7.0-0.1-2.1-0.45,5f1595f708c0591d0f724058,5deb9c5a4de9422935efe5e7,5f16a3d5bf131c822978bc3a,0.30000000000000004,rick84,,,,"<div style=""width:150px;height:56px;font-size:30px;text-align:center;"">+</div><div class=""reminder"">Press <strong>Space</strong> for <img src=""stimuli/Q.png"" width=""3%"">, not for <img src=""stimuli/O.png"" width=""3%""></div>",,,,,,,,,,
,html-keyboard-response,185,248442,0.0-7.0-0.1-2.1-1.45,5f1595f708c0591d0f724058,5deb9c5a4de9422935efe5e7,5f16a3d5bf131c822978bc3a,0.30000000000000004,rick84,,,,"<div style=""width:150px;height:56px;font-size:30px;text-align:center;"">+</div><div class=""central_stim""><img src=""stimuli/O.png"" width=""30%"" style=""padding:2vmin""></div><div class=""reminder"">Press <strong>Space</strong> for <img src=""stimuli/Q.png"" width=""3%"">, not for <img src=""stimuli/O.png"" width=""3%""></div>",,"['stimuli/O.png', 'stimuli/Q.png']",main,0.0,test,1.0,1.0,13.0,3.0,
,html-keyboard-response,186,248946,0.0-7.0-0.1-2.1-0.46,5f1595f708c0591d0f724058,5deb9c5a4de9422935efe5e7,5f16a3d5bf131c822978bc3a,0.30000000000000004,rick84,,,,"<div style=""width:150px;height:56px;font-size:30px;text-align:center;"">+</div><div class=""reminder"">Press <strong>Space</strong> for <img src=""stimuli/Q.png"" width=""3%"">, not for <img src=""stimuli/O.png"" width=""3%""></div>",,,,,,,,,,
,html-keyboard-response,187,249299,0.0-7.0-0.1-2.1-1.46,5f1595f708c0591d0f724058,5deb9c5a4de9422935efe5e7,5f16a3d5bf131c822978bc3a,0.30000000000000004,rick84,351.86500003328547,,,"<div style=""width:150px;height:56px;font-size:30px;text-align:center;"">+</div><div class=""central_stim""><img src=""stimuli/Q.png"" width=""30%"" style=""padding:2vmin""></div><div class=""reminder"">Press <strong>Space</strong> for <img src=""stimuli/Q.png"" width=""3%"">, not for <img src=""stimuli/O.png"" width=""3%""></div>",32.0,"['stimuli/O.png', 'stimuli/Q.png']",main,1.0,test,1.0,1.0,14.0,3.0,
,html-keyboard-response,188,249800,0.0-7.0-0.1-2.1-0.47,5f1595f708c0591d0f724058,5deb9c5a4de9422935efe5e7,5f16a3d5bf131c822978bc3a,0.30000000000000004,rick84,,,,"<div style=""width:150px;height:56px;font-size:30px;text-align:center;"">+</div><div class=""reminder"">Press <strong>Space</strong> for <img src=""stimuli/Q.png"" width=""3%"">, not for <img src=""stimuli/O.png"" width=""3%""></div>",,,,,,,,,,
,html-keyboard-response,189,250255,0.0-7.0-0.1-2.1-1.47,5f1595f708c0591d0f724058,5deb9c5a4de9422935efe5e7,5f16a3d5bf131c822978bc3a,0.30000000000000004,rick84,454.28999996511266,,,"<div style=""width:150px;height:56px;font-size:30px;text-align:center;"">+</div><div class=""central_stim""><img src=""stimuli/Q.png"" width=""30%"" style=""padding:2vmin""></div><div class=""reminder"">Press <strong>Space</strong> for <img src=""stimuli/Q.png"" width=""3%"">, not for <img src=""stimuli/O.png"" width=""3%""></div>",32.0,"['stimuli/O.png', 'stimuli/Q.png']",main,1.0,test,1.0,1.0,15.0,3.0,
,html-keyboard-response,190,250757,0.0-7.0-0.1-2.1-0.48,5f1595f708c0591d0f724058,5deb9c5a4de9422935efe5e7,5f16a3d5bf131c822978bc3a,0.30000000000000004,rick84,,,,"<div style=""width:150px;height:56px;font-size:30px;text-align:center;"">+</div><div class=""reminder"">Press <strong>Space</strong> for <img src=""stimuli/Q.png"" width=""3%"">, not for <img src=""stimuli/O.png"" width=""3%""></div>",,,,,,,,,,
,html-keyboard-response,191,251076,0.0-7.0-0.1-2.1-1.48,5f1595f708c0591d0f724058,5deb9c5a4de9422935efe5e7,5f16a3d5bf131c822978bc3a,0.30000000000000004,rick84,318.58500000089407,,,"<div style=""width:150px;height:56px;font-size:30px;text-align:center;"">+</div><div class=""central_stim""><img src=""stimuli/Q.png"" width=""30%"" style=""padding:2vmin""></div><div class=""reminder"">Press <strong>Space</strong> for <img src=""stimuli/Q.png"" width=""3%"">, not for <img src=""stimuli/O.png"" width=""3%""></div>",32.0,"['stimuli/O.png', 'stimuli/Q.png']",main,1.0,test,1.0,1.0,16.0,3.0,
,html-keyboard-response,192,251581,0.0-7.0-0.1-2.1-0.49,5f1595f708c0591d0f724058,5deb9c5a4de9422935efe5e7,5f16a3d5bf131c822978bc3a,0.30000000000000004,rick84,,,,"<div style=""width:150px;height:56px;font-size:30px;text-align:center;"">+</div><div class=""reminder"">Press <strong>Space</strong> for <img src=""stimuli/Q.png"" width=""3%"">, not for <img src=""stimuli/O.png"" width=""3%""></div>",,,,,,,,,,
,html-keyboard-response,193,251954,0.0-7.0-0.1-2.1-1.49,5f1595f708c0591d0f724058,5deb9c5a4de9422935efe5e7,5f16a3d5bf131c822978bc3a,0.30000000000000004,rick84,372.42499995045364,,,"<div style=""width:150px;height:56px;font-size:30px;text-align:center;"">+</div><div class=""central_stim""><img src=""stimuli/Q.png"" width=""30%"" style=""padding:2vmin""></div><div class=""reminder"">Press <strong>Space</strong> for <img src=""stimuli/Q.png"" width=""3%"">, not for <img src=""stimuli/O.png"" width=""3%""></div>",32.0,"['stimuli/O.png', 'stimuli/Q.png']",main,1.0,test,1.0,1.0,17.0,3.0,
,html-keyboard-response,194,252455,0.0-7.0-0.1-2.1-0.50,5f1595f708c0591d0f724058,5deb9c5a4de9422935efe5e7,5f16a3d5bf131c822978bc3a,0.30000000000000004,rick84,,,,"<div style=""width:150px;height:56px;font-size:30px;text-align:center;"">+</div><div class=""reminder"">Press <strong>Space</strong> for <img src=""stimuli/Q.png"" width=""3%"">, not for <img src=""stimuli/O.png"" width=""3%""></div>",,,,,,,,,,
,html-keyboard-response,195,252961,0.0-7.0-0.1-2.1-1.50,5f1595f708c0591d0f724058,5deb9c5a4de9422935efe5e7,5f16a3d5bf131c822978bc3a,0.30000000000000004,rick84,,,,"<div style=""width:150px;height:56px;font-size:30px;text-align:center;"">+</div><div class=""central_stim""><img src=""stimuli/O.png"" width=""30%"" style=""padding:2vmin""></div><div class=""reminder"">Press <strong>Space</strong> for <img src=""stimuli/Q.png"" width=""3%"">, not for <img src=""stimuli/O.png"" width=""3%""></div>",,"['stimuli/O.png', 'stimuli/Q.png']",main,0.0,test,1.0,1.0,18.0,3.0,
,html-keyboard-response,196,253462,0.0-7.0-0.1-2.1-0.51,5f1595f708c0591d0f724058,5deb9c5a4de9422935efe5e7,5f16a3d5bf131c822978bc3a,0.30000000000000004,rick84,,,,"<div style=""width:150px;height:56px;font-size:30px;text-align:center;"">+</div><div class=""reminder"">Press <strong>Space</strong> for <img src=""stimuli/Q.png"" width=""3%"">, not for <img src=""stimuli/O.png"" width=""3%""></div>",,,,,,,,,,
,html-keyboard-response,197,253965,0.0-7.0-0.1-2.1-1.51,5f1595f708c0591d0f724058,5deb9c5a4de9422935efe5e7,5f16a3d5bf131c822978bc3a,0.30000000000000004,rick84,,,,"<div style=""width:150px;height:56px;font-size:30px;text-align:center;"">+</div><div class=""central_stim""><img src=""stimuli/O.png"" width=""30%"" style=""padding:2vmin""></div><div class=""reminder"">Press <strong>Space</strong> for <img src=""stimuli/Q.png"" width=""3%"">, not for <img src=""stimuli/O.png"" width=""3%""></div>",,"['stimuli/O.png', 'stimuli/Q.png']",main,0.0,test,1.0,1.0,19.0,3.0,
,html-keyboard-response,198,254469,0.0-7.0-0.1-2.1-0.52,5f1595f708c0591d0f724058,5deb9c5a4de9422935efe5e7,5f16a3d5bf131c822978bc3a,0.30000000000000004,rick84,,,,"<div style=""width:150px;height:56px;font-size:30px;text-align:center;"">+</div><div class=""reminder"">Press <strong>Space</strong> for <img src=""stimuli/Q.png"" width=""3%"">, not for <img src=""stimuli/O.png"" width=""3%""></div>",,,,,,,,,,
,html-keyboard-response,199,254975,0.0-7.0-0.1-2.1-1.52,5f1595f708c0591d0f724058,5deb9c5a4de9422935efe5e7,5f16a3d5bf131c822978bc3a,0.30000000000000004,rick84,,,,"<div style=""width:150px;height:56px;font-size:30px;text-align:center;"">+</div><div class=""central_stim""><img src=""stimuli/O.png"" width=""30%"" style=""padding:2vmin""></div><div class=""reminder"">Press <strong>Space</strong> for <img src=""stimuli/Q.png"" width=""3%"">, not for <img src=""stimuli/O.png"" width=""3%""></div>",,"['stimuli/O.png', 'stimuli/Q.png']",main,0.0,test,1.0,1.0,20.0,3.0,
,html-keyboard-response,200,255479,0.0-7.0-0.1-2.1-0.53,5f1595f708c0591d0f724058,5deb9c5a4de9422935efe5e7,5f16a3d5bf131c822978bc3a,0.30000000000000004,rick84,,,,"<div style=""width:150px;height:56px;font-size:30px;text-align:center;"">+</div><div class=""reminder"">Press <strong>Space</strong> for <img src=""stimuli/Q.png"" width=""3%"">, not for <img src=""stimuli/O.png"" width=""3%""></div>",,,,,,,,,,
,html-keyboard-response,201,255892,0.0-7.0-0.1-2.1-1.53,5f1595f708c0591d0f724058,5deb9c5a4de9422935efe5e7,5f16a3d5bf131c822978bc3a,0.30000000000000004,rick84,411.61499998997897,,,"<div style=""width:150px;height:56px;font-size:30px;text-align:center;"">+</div><div class=""central_stim""><img src=""stimuli/Q.png"" width=""30%"" style=""padding:2vmin""></div><div class=""reminder"">Press <strong>Space</strong> for <img src=""stimuli/Q.png"" width=""3%"">, not for <img src=""stimuli/O.png"" width=""3%""></div>",32.0,"['stimuli/O.png', 'stimuli/Q.png']",main,1.0,test,1.0,1.0,21.0,3.0,
,html-keyboard-response,202,256396,0.0-7.0-0.1-2.1-0.54,5f1595f708c0591d0f724058,5deb9c5a4de9422935efe5e7,5f16a3d5bf131c822978bc3a,0.30000000000000004,rick84,,,,"<div style=""width:150px;height:56px;font-size:30px;text-align:center;"">+</div><div class=""reminder"">Press <strong>Space</strong> for <img src=""stimuli/Q.png"" width=""3%"">, not for <img src=""stimuli/O.png"" width=""3%""></div>",,,,,,,,,,
,html-keyboard-response,203,256898,0.0-7.0-0.1-2.1-1.54,5f1595f708c0591d0f724058,5deb9c5a4de9422935efe5e7,5f16a3d5bf131c822978bc3a,0.30000000000000004,rick84,,,,"<div style=""width:150px;height:56px;font-size:30px;text-align:center;"">+</div><div class=""central_stim""><img src=""stimuli/O.png"" width=""30%"" style=""padding:2vmin""></div><div class=""reminder"">Press <strong>Space</strong> for <img src=""stimuli/Q.png"" width=""3%"">, not for <img src=""stimuli/O.png"" width=""3%""></div>",,"['stimuli/O.png', 'stimuli/Q.png']",main,0.0,test,1.0,1.0,22.0,3.0,
,html-keyboard-response,204,257403,0.0-7.0-0.1-2.1-0.55,5f1595f708c0591d0f724058,5deb9c5a4de9422935efe5e7,5f16a3d5bf131c822978bc3a,0.30000000000000004,rick84,,,,"<div style=""width:150px;height:56px;font-size:30px;text-align:center;"">+</div><div class=""reminder"">Press <strong>Space</strong> for <img src=""stimuli/Q.png"" width=""3%"">, not for <img src=""stimuli/O.png"" width=""3%""></div>",,,,,,,,,,
,html-keyboard-response,205,257692,0.0-7.0-0.1-2.1-1.55,5f1595f708c0591d0f724058,5deb9c5a4de9422935efe5e7,5f16a3d5bf131c822978bc3a,0.30000000000000004,rick84,288.3049999945797,,,"<div style=""width:150px;height:56px;font-size:30px;text-align:center;"">+</div><div class=""central_stim""><img src=""stimuli/Q.png"" width=""30%"" style=""padding:2vmin""></div><div class=""reminder"">Press <strong>Space</strong> for <img src=""stimuli/Q.png"" width=""3%"">, not for <img src=""stimuli/O.png"" width=""3%""></div>",32.0,"['stimuli/O.png', 'stimuli/Q.png']",main,1.0,test,1.0,1.0,23.0,3.0,
,html-keyboard-response,206,258196,0.0-7.0-0.1-2.1-0.56,5f1595f708c0591d0f724058,5deb9c5a4de9422935efe5e7,5f16a3d5bf131c822978bc3a,0.30000000000000004,rick84,,,,"<div style=""width:150px;height:56px;font-size:30px;text-align:center;"">+</div><div class=""reminder"">Press <strong>Space</strong> for <img src=""stimuli/Q.png"" width=""3%"">, not for <img src=""stimuli/O.png"" width=""3%""></div>",,,,,,,,,,
