success,trial_type,trial_index,time_elapsed,internal_node_id,protocol_sum,subject_identifier,subject_sum,STUDY_ID,PROLIFIC_PID,SESSION_ID,bonus,nickname,rt,url,set_size,change,addition,RT,response,jitter,correct_response,test_part,correct,stimulus,key_press,responses
1.0,fullscreen,0,5693,0.0-0.0,f078aa2862041786868ef9f2ad23336df49386eb98fe8259951830bdf7c3dbfd,5c575b1b53fba80001bd3288,"[127, 143, 49, 161, 248, 108, 17, 169, 57, 159, 214, 123, 197, 69, 116, 196, 48, 122, 236, 152, 115, 220, 104, 14, 25, 74, 110, 46, 45, 178, 117, 134]",5f180469d29f570181bfb241,5c575b1b53fba80001bd3288,5f1824ff1542050621660c1f,0.19,marieleanne,,,,,,,,,,,,,,
,external-html,1,44466,0.0-1.0,f078aa2862041786868ef9f2ad23336df49386eb98fe8259951830bdf7c3dbfd,5c575b1b53fba80001bd3288,"[127, 143, 49, 161, 248, 108, 17, 169, 57, 159, 214, 123, 197, 69, 116, 196, 48, 122, 236, 152, 115, 220, 104, 14, 25, 74, 110, 46, 45, 178, 117, 134]",5f180469d29f570181bfb241,5c575b1b53fba80001bd3288,5f1824ff1542050621660c1f,0.19,marieleanne,38749.215000000026,nickname.html,,,,,,,,,,,,
,p5Text,2,46070,0.0-2.0,f078aa2862041786868ef9f2ad23336df49386eb98fe8259951830bdf7c3dbfd,5c575b1b53fba80001bd3288,"[127, 143, 49, 161, 248, 108, 17, 169, 57, 159, 214, 123, 197, 69, 116, 196, 48, 122, 236, 152, 115, 220, 104, 14, 25, 74, 110, 46, 45, 178, 117, 134]",5f180469d29f570181bfb241,5c575b1b53fba80001bd3288,5f1824ff1542050621660c1f,0.19,marieleanne,,,,,,,,,,,,,,
,p5Text,3,61812,0.0-3.0-0.0,f078aa2862041786868ef9f2ad23336df49386eb98fe8259951830bdf7c3dbfd,5c575b1b53fba80001bd3288,"[127, 143, 49, 161, 248, 108, 17, 169, 57, 159, 214, 123, 197, 69, 116, 196, 48, 122, 236, 152, 115, 220, 104, 14, 25, 74, 110, 46, 45, 178, 117, 134]",5f180469d29f570181bfb241,5c575b1b53fba80001bd3288,5f1824ff1542050621660c1f,0.19,marieleanne,,,,,,,,,,,,,,
,p5cd_probe,4,66993,0.0-3.0-1.0-0.0,f078aa2862041786868ef9f2ad23336df49386eb98fe8259951830bdf7c3dbfd,5c575b1b53fba80001bd3288,"[127, 143, 49, 161, 248, 108, 17, 169, 57, 159, 214, 123, 197, 69, 116, 196, 48, 122, 236, 152, 115, 220, 104, 14, 25, 74, 110, 46, 45, 178, 117, 134]",5f180469d29f570181bfb241,5c575b1b53fba80001bd3288,5f1824ff1542050621660c1f,0.19,marieleanne,,,4.0,0.0,1.0,3498.9338506753193,f,162.37614932470024,f,practice,1.0,,,
,html-keyboard-response,5,67996,0.0-3.0-1.0-1.0,f078aa2862041786868ef9f2ad23336df49386eb98fe8259951830bdf7c3dbfd,5c575b1b53fba80001bd3288,"[127, 143, 49, 161, 248, 108, 17, 169, 57, 159, 214, 123, 197, 69, 116, 196, 48, 122, 236, 152, 115, 220, 104, 14, 25, 74, 110, 46, 45, 178, 117, 134]",5f180469d29f570181bfb241,5c575b1b53fba80001bd3288,5f1824ff1542050621660c1f,0.19,marieleanne,,,,,,,,,,,,"<div style=""width:150px;height:56px;font-size:30px;text-align:center;"">correct!</div>",,
,p5cd_probe,6,70837,0.0-3.0-1.0-0.1,f078aa2862041786868ef9f2ad23336df49386eb98fe8259951830bdf7c3dbfd,5c575b1b53fba80001bd3288,"[127, 143, 49, 161, 248, 108, 17, 169, 57, 159, 214, 123, 197, 69, 116, 196, 48, 122, 236, 152, 115, 220, 104, 14, 25, 74, 110, 46, 45, 178, 117, 134]",5f180469d29f570181bfb241,5c575b1b53fba80001bd3288,5f1824ff1542050621660c1f,0.19,marieleanne,,,4.0,1.0,0.0,1161.7283831242821,f,162.45661687571555,j,practice,0.0,,,
,html-keyboard-response,7,72339,0.0-3.0-1.0-1.1,f078aa2862041786868ef9f2ad23336df49386eb98fe8259951830bdf7c3dbfd,5c575b1b53fba80001bd3288,"[127, 143, 49, 161, 248, 108, 17, 169, 57, 159, 214, 123, 197, 69, 116, 196, 48, 122, 236, 152, 115, 220, 104, 14, 25, 74, 110, 46, 45, 178, 117, 134]",5f180469d29f570181bfb241,5c575b1b53fba80001bd3288,5f1824ff1542050621660c1f,0.19,marieleanne,,,,,,,,,,,,"<div style=""width:150px;height:56px;border:0px;font-size:30px;text-align:center"">wrong.</div>",,
,p5cd_probe,8,75813,0.0-3.0-1.0-0.2,f078aa2862041786868ef9f2ad23336df49386eb98fe8259951830bdf7c3dbfd,5c575b1b53fba80001bd3288,"[127, 143, 49, 161, 248, 108, 17, 169, 57, 159, 214, 123, 197, 69, 116, 196, 48, 122, 236, 152, 115, 220, 104, 14, 25, 74, 110, 46, 45, 178, 117, 134]",5f180469d29f570181bfb241,5c575b1b53fba80001bd3288,5f1824ff1542050621660c1f,0.19,marieleanne,,,4.0,1.0,1.0,1821.4888178883994,f,136.18118211161345,j,practice,0.0,,,
,html-keyboard-response,9,77315,0.0-3.0-1.0-1.2,f078aa2862041786868ef9f2ad23336df49386eb98fe8259951830bdf7c3dbfd,5c575b1b53fba80001bd3288,"[127, 143, 49, 161, 248, 108, 17, 169, 57, 159, 214, 123, 197, 69, 116, 196, 48, 122, 236, 152, 115, 220, 104, 14, 25, 74, 110, 46, 45, 178, 117, 134]",5f180469d29f570181bfb241,5c575b1b53fba80001bd3288,5f1824ff1542050621660c1f,0.19,marieleanne,,,,,,,,,,,,"<div style=""width:150px;height:56px;border:0px;font-size:30px;text-align:center"">wrong.</div>",,
,p5cd_probe,10,81170,0.0-3.0-1.0-0.3,f078aa2862041786868ef9f2ad23336df49386eb98fe8259951830bdf7c3dbfd,5c575b1b53fba80001bd3288,"[127, 143, 49, 161, 248, 108, 17, 169, 57, 159, 214, 123, 197, 69, 116, 196, 48, 122, 236, 152, 115, 220, 104, 14, 25, 74, 110, 46, 45, 178, 117, 134]",5f180469d29f570181bfb241,5c575b1b53fba80001bd3288,5f1824ff1542050621660c1f,0.19,marieleanne,,,4.0,0.0,0.0,1949.3842471697571,f,396.11075283028185,f,practice,1.0,,,
,html-keyboard-response,11,82173,0.0-3.0-1.0-1.3,f078aa2862041786868ef9f2ad23336df49386eb98fe8259951830bdf7c3dbfd,5c575b1b53fba80001bd3288,"[127, 143, 49, 161, 248, 108, 17, 169, 57, 159, 214, 123, 197, 69, 116, 196, 48, 122, 236, 152, 115, 220, 104, 14, 25, 74, 110, 46, 45, 178, 117, 134]",5f180469d29f570181bfb241,5c575b1b53fba80001bd3288,5f1824ff1542050621660c1f,0.19,marieleanne,,,,,,,,,,,,"<div style=""width:150px;height:56px;font-size:30px;text-align:center;"">correct!</div>",,
,p5Text,12,84104,0.0-3.1-0.1,f078aa2862041786868ef9f2ad23336df49386eb98fe8259951830bdf7c3dbfd,5c575b1b53fba80001bd3288,"[127, 143, 49, 161, 248, 108, 17, 169, 57, 159, 214, 123, 197, 69, 116, 196, 48, 122, 236, 152, 115, 220, 104, 14, 25, 74, 110, 46, 45, 178, 117, 134]",5f180469d29f570181bfb241,5c575b1b53fba80001bd3288,5f1824ff1542050621660c1f,0.19,marieleanne,,,,,,,,,,,,,,
,p5cd_probe,13,86812,0.0-3.1-1.1-0.4,f078aa2862041786868ef9f2ad23336df49386eb98fe8259951830bdf7c3dbfd,5c575b1b53fba80001bd3288,"[127, 143, 49, 161, 248, 108, 17, 169, 57, 159, 214, 123, 197, 69, 116, 196, 48, 122, 236, 152, 115, 220, 104, 14, 25, 74, 110, 46, 45, 178, 117, 134]",5f180469d29f570181bfb241,5c575b1b53fba80001bd3288,5f1824ff1542050621660c1f,0.19,marieleanne,,,4.0,1.0,0.0,1031.3505980246846,f,170.5444019753486,j,practice,0.0,,,
,html-keyboard-response,14,88315,0.0-3.1-1.1-1.4,f078aa2862041786868ef9f2ad23336df49386eb98fe8259951830bdf7c3dbfd,5c575b1b53fba80001bd3288,"[127, 143, 49, 161, 248, 108, 17, 169, 57, 159, 214, 123, 197, 69, 116, 196, 48, 122, 236, 152, 115, 220, 104, 14, 25, 74, 110, 46, 45, 178, 117, 134]",5f180469d29f570181bfb241,5c575b1b53fba80001bd3288,5f1824ff1542050621660c1f,0.19,marieleanne,,,,,,,,,,,,"<div style=""width:150px;height:56px;border:0px;font-size:30px;text-align:center"">wrong.</div>",,
,p5cd_probe,15,92136,0.0-3.1-1.1-0.5,f078aa2862041786868ef9f2ad23336df49386eb98fe8259951830bdf7c3dbfd,5c575b1b53fba80001bd3288,"[127, 143, 49, 161, 248, 108, 17, 169, 57, 159, 214, 123, 197, 69, 116, 196, 48, 122, 236, 152, 115, 220, 104, 14, 25, 74, 110, 46, 45, 178, 117, 134]",5f180469d29f570181bfb241,5c575b1b53fba80001bd3288,5f1824ff1542050621660c1f,0.19,marieleanne,,,4.0,0.0,0.0,2000.2790745699021,f,312.46092543005943,f,practice,1.0,,,
,html-keyboard-response,16,93137,0.0-3.1-1.1-1.5,f078aa2862041786868ef9f2ad23336df49386eb98fe8259951830bdf7c3dbfd,5c575b1b53fba80001bd3288,"[127, 143, 49, 161, 248, 108, 17, 169, 57, 159, 214, 123, 197, 69, 116, 196, 48, 122, 236, 152, 115, 220, 104, 14, 25, 74, 110, 46, 45, 178, 117, 134]",5f180469d29f570181bfb241,5c575b1b53fba80001bd3288,5f1824ff1542050621660c1f,0.19,marieleanne,,,,,,,,,,,,"<div style=""width:150px;height:56px;font-size:30px;text-align:center;"">correct!</div>",,
,p5cd_probe,17,96712,0.0-3.1-1.1-0.6,f078aa2862041786868ef9f2ad23336df49386eb98fe8259951830bdf7c3dbfd,5c575b1b53fba80001bd3288,"[127, 143, 49, 161, 248, 108, 17, 169, 57, 159, 214, 123, 197, 69, 116, 196, 48, 122, 236, 152, 115, 220, 104, 14, 25, 74, 110, 46, 45, 178, 117, 134]",5f180469d29f570181bfb241,5c575b1b53fba80001bd3288,5f1824ff1542050621660c1f,0.19,marieleanne,,,4.0,1.0,1.0,1647.038756316877,f,414.601243683137,j,practice,0.0,,,
,html-keyboard-response,18,98214,0.0-3.1-1.1-1.6,f078aa2862041786868ef9f2ad23336df49386eb98fe8259951830bdf7c3dbfd,5c575b1b53fba80001bd3288,"[127, 143, 49, 161, 248, 108, 17, 169, 57, 159, 214, 123, 197, 69, 116, 196, 48, 122, 236, 152, 115, 220, 104, 14, 25, 74, 110, 46, 45, 178, 117, 134]",5f180469d29f570181bfb241,5c575b1b53fba80001bd3288,5f1824ff1542050621660c1f,0.19,marieleanne,,,,,,,,,,,,"<div style=""width:150px;height:56px;border:0px;font-size:30px;text-align:center"">wrong.</div>",,
,p5cd_probe,19,102551,0.0-3.1-1.1-0.7,f078aa2862041786868ef9f2ad23336df49386eb98fe8259951830bdf7c3dbfd,5c575b1b53fba80001bd3288,"[127, 143, 49, 161, 248, 108, 17, 169, 57, 159, 214, 123, 197, 69, 116, 196, 48, 122, 236, 152, 115, 220, 104, 14, 25, 74, 110, 46, 45, 178, 117, 134]",5f180469d29f570181bfb241,5c575b1b53fba80001bd3288,5f1824ff1542050621660c1f,0.19,marieleanne,,,4.0,0.0,1.0,2349.961341715418,j,479.5386582845822,f,practice,0.0,,,
,html-keyboard-response,20,104053,0.0-3.1-1.1-1.7,f078aa2862041786868ef9f2ad23336df49386eb98fe8259951830bdf7c3dbfd,5c575b1b53fba80001bd3288,"[127, 143, 49, 161, 248, 108, 17, 169, 57, 159, 214, 123, 197, 69, 116, 196, 48, 122, 236, 152, 115, 220, 104, 14, 25, 74, 110, 46, 45, 178, 117, 134]",5f180469d29f570181bfb241,5c575b1b53fba80001bd3288,5f1824ff1542050621660c1f,0.19,marieleanne,,,,,,,,,,,,"<div style=""width:150px;height:56px;border:0px;font-size:30px;text-align:center"">wrong.</div>",,
,p5Text,21,113014,0.0-3.2-0.2,f078aa2862041786868ef9f2ad23336df49386eb98fe8259951830bdf7c3dbfd,5c575b1b53fba80001bd3288,"[127, 143, 49, 161, 248, 108, 17, 169, 57, 159, 214, 123, 197, 69, 116, 196, 48, 122, 236, 152, 115, 220, 104, 14, 25, 74, 110, 46, 45, 178, 117, 134]",5f180469d29f570181bfb241,5c575b1b53fba80001bd3288,5f1824ff1542050621660c1f,0.19,marieleanne,,,,,,,,,,,,,,
,p5cd_probe,22,117760,0.0-3.2-1.2-0.8,f078aa2862041786868ef9f2ad23336df49386eb98fe8259951830bdf7c3dbfd,5c575b1b53fba80001bd3288,"[127, 143, 49, 161, 248, 108, 17, 169, 57, 159, 214, 123, 197, 69, 116, 196, 48, 122, 236, 152, 115, 220, 104, 14, 25, 74, 110, 46, 45, 178, 117, 134]",5f180469d29f570181bfb241,5c575b1b53fba80001bd3288,5f1824ff1542050621660c1f,0.19,marieleanne,,,4.0,1.0,0.0,3011.509239319261,j,230.51076068077236,j,practice,1.0,,,
,html-keyboard-response,23,118762,0.0-3.2-1.2-1.8,f078aa2862041786868ef9f2ad23336df49386eb98fe8259951830bdf7c3dbfd,5c575b1b53fba80001bd3288,"[127, 143, 49, 161, 248, 108, 17, 169, 57, 159, 214, 123, 197, 69, 116, 196, 48, 122, 236, 152, 115, 220, 104, 14, 25, 74, 110, 46, 45, 178, 117, 134]",5f180469d29f570181bfb241,5c575b1b53fba80001bd3288,5f1824ff1542050621660c1f,0.19,marieleanne,,,,,,,,,,,,"<div style=""width:150px;height:56px;font-size:30px;text-align:center;"">correct!</div>",,
,p5cd_probe,24,122270,0.0-3.2-1.2-0.9,f078aa2862041786868ef9f2ad23336df49386eb98fe8259951830bdf7c3dbfd,5c575b1b53fba80001bd3288,"[127, 143, 49, 161, 248, 108, 17, 169, 57, 159, 214, 123, 197, 69, 116, 196, 48, 122, 236, 152, 115, 220, 104, 14, 25, 74, 110, 46, 45, 178, 117, 134]",5f180469d29f570181bfb241,5c575b1b53fba80001bd3288,5f1824ff1542050621660c1f,0.19,marieleanne,,,4.0,0.0,0.0,1718.9048701878928,f,278.80512981209904,f,practice,1.0,,,
,html-keyboard-response,25,123272,0.0-3.2-1.2-1.9,f078aa2862041786868ef9f2ad23336df49386eb98fe8259951830bdf7c3dbfd,5c575b1b53fba80001bd3288,"[127, 143, 49, 161, 248, 108, 17, 169, 57, 159, 214, 123, 197, 69, 116, 196, 48, 122, 236, 152, 115, 220, 104, 14, 25, 74, 110, 46, 45, 178, 117, 134]",5f180469d29f570181bfb241,5c575b1b53fba80001bd3288,5f1824ff1542050621660c1f,0.19,marieleanne,,,,,,,,,,,,"<div style=""width:150px;height:56px;font-size:30px;text-align:center;"">correct!</div>",,
,p5cd_probe,26,127195,0.0-3.2-1.2-0.10,f078aa2862041786868ef9f2ad23336df49386eb98fe8259951830bdf7c3dbfd,5c575b1b53fba80001bd3288,"[127, 143, 49, 161, 248, 108, 17, 169, 57, 159, 214, 123, 197, 69, 116, 196, 48, 122, 236, 152, 115, 220, 104, 14, 25, 74, 110, 46, 45, 178, 117, 134]",5f180469d29f570181bfb241,5c575b1b53fba80001bd3288,5f1824ff1542050621660c1f,0.19,marieleanne,,,4.0,1.0,1.0,2185.4549938169657,j,220.25000618305057,j,practice,1.0,,,
,html-keyboard-response,27,128197,0.0-3.2-1.2-1.10,f078aa2862041786868ef9f2ad23336df49386eb98fe8259951830bdf7c3dbfd,5c575b1b53fba80001bd3288,"[127, 143, 49, 161, 248, 108, 17, 169, 57, 159, 214, 123, 197, 69, 116, 196, 48, 122, 236, 152, 115, 220, 104, 14, 25, 74, 110, 46, 45, 178, 117, 134]",5f180469d29f570181bfb241,5c575b1b53fba80001bd3288,5f1824ff1542050621660c1f,0.19,marieleanne,,,,,,,,,,,,"<div style=""width:150px;height:56px;font-size:30px;text-align:center;"">correct!</div>",,
,p5cd_probe,28,131521,0.0-3.2-1.2-0.11,f078aa2862041786868ef9f2ad23336df49386eb98fe8259951830bdf7c3dbfd,5c575b1b53fba80001bd3288,"[127, 143, 49, 161, 248, 108, 17, 169, 57, 159, 214, 123, 197, 69, 116, 196, 48, 122, 236, 152, 115, 220, 104, 14, 25, 74, 110, 46, 45, 178, 117, 134]",5f180469d29f570181bfb241,5c575b1b53fba80001bd3288,5f1824ff1542050621660c1f,0.19,marieleanne,,,4.0,0.0,1.0,1319.353440590421,f,492.4065594095737,f,practice,1.0,,,
,html-keyboard-response,29,132524,0.0-3.2-1.2-1.11,f078aa2862041786868ef9f2ad23336df49386eb98fe8259951830bdf7c3dbfd,5c575b1b53fba80001bd3288,"[127, 143, 49, 161, 248, 108, 17, 169, 57, 159, 214, 123, 197, 69, 116, 196, 48, 122, 236, 152, 115, 220, 104, 14, 25, 74, 110, 46, 45, 178, 117, 134]",5f180469d29f570181bfb241,5c575b1b53fba80001bd3288,5f1824ff1542050621660c1f,0.19,marieleanne,,,,,,,,,,,,"<div style=""width:150px;height:56px;font-size:30px;text-align:center;"">correct!</div>",,
,p5Text,30,136339,0.0-4.0,f078aa2862041786868ef9f2ad23336df49386eb98fe8259951830bdf7c3dbfd,5c575b1b53fba80001bd3288,"[127, 143, 49, 161, 248, 108, 17, 169, 57, 159, 214, 123, 197, 69, 116, 196, 48, 122, 236, 152, 115, 220, 104, 14, 25, 74, 110, 46, 45, 178, 117, 134]",5f180469d29f570181bfb241,5c575b1b53fba80001bd3288,5f1824ff1542050621660c1f,0.19,marieleanne,,,,,,,,,,,,,,
,p5Text,31,142528,0.0-5.0,f078aa2862041786868ef9f2ad23336df49386eb98fe8259951830bdf7c3dbfd,5c575b1b53fba80001bd3288,"[127, 143, 49, 161, 248, 108, 17, 169, 57, 159, 214, 123, 197, 69, 116, 196, 48, 122, 236, 152, 115, 220, 104, 14, 25, 74, 110, 46, 45, 178, 117, 134]",5f180469d29f570181bfb241,5c575b1b53fba80001bd3288,5f1824ff1542050621660c1f,0.19,marieleanne,,,,,,,,,,,,,,
,p5Text,32,144111,0.0-6.0-0.0,f078aa2862041786868ef9f2ad23336df49386eb98fe8259951830bdf7c3dbfd,5c575b1b53fba80001bd3288,"[127, 143, 49, 161, 248, 108, 17, 169, 57, 159, 214, 123, 197, 69, 116, 196, 48, 122, 236, 152, 115, 220, 104, 14, 25, 74, 110, 46, 45, 178, 117, 134]",5f180469d29f570181bfb241,5c575b1b53fba80001bd3288,5f1824ff1542050621660c1f,0.19,marieleanne,,,,,,,,,,,,,,
,p5cd_probe,33,147047,0.0-6.0-1.0-0.0,f078aa2862041786868ef9f2ad23336df49386eb98fe8259951830bdf7c3dbfd,5c575b1b53fba80001bd3288,"[127, 143, 49, 161, 248, 108, 17, 169, 57, 159, 214, 123, 197, 69, 116, 196, 48, 122, 236, 152, 115, 220, 104, 14, 25, 74, 110, 46, 45, 178, 117, 134]",5f180469d29f570181bfb241,5c575b1b53fba80001bd3288,5f1824ff1542050621660c1f,0.19,marieleanne,,,4.0,0.0,1.0,1350.158720666368,j,418.9162793336436,f,test,0.0,,,
,p5cd_probe,34,150742,0.0-6.0-1.0-0.1,f078aa2862041786868ef9f2ad23336df49386eb98fe8259951830bdf7c3dbfd,5c575b1b53fba80001bd3288,"[127, 143, 49, 161, 248, 108, 17, 169, 57, 159, 214, 123, 197, 69, 116, 196, 48, 122, 236, 152, 115, 220, 104, 14, 25, 74, 110, 46, 45, 178, 117, 134]",5f180469d29f570181bfb241,5c575b1b53fba80001bd3288,5f1824ff1542050621660c1f,0.19,marieleanne,,,4.0,1.0,0.0,2118.4520917096816,j,423.7129082903266,j,test,1.0,,,
,p5cd_probe,35,154585,0.0-6.0-1.0-0.2,f078aa2862041786868ef9f2ad23336df49386eb98fe8259951830bdf7c3dbfd,5c575b1b53fba80001bd3288,"[127, 143, 49, 161, 248, 108, 17, 169, 57, 159, 214, 123, 197, 69, 116, 196, 48, 122, 236, 152, 115, 220, 104, 14, 25, 74, 110, 46, 45, 178, 117, 134]",5f180469d29f570181bfb241,5c575b1b53fba80001bd3288,5f1824ff1542050621660c1f,0.19,marieleanne,,,4.0,0.0,0.0,2193.85713339175,f,480.95286660827696,f,test,1.0,,,
,p5cd_probe,36,157696,0.0-6.0-1.0-0.3,f078aa2862041786868ef9f2ad23336df49386eb98fe8259951830bdf7c3dbfd,5c575b1b53fba80001bd3288,"[127, 143, 49, 161, 248, 108, 17, 169, 57, 159, 214, 123, 197, 69, 116, 196, 48, 122, 236, 152, 115, 220, 104, 14, 25, 74, 110, 46, 45, 178, 117, 134]",5f180469d29f570181bfb241,5c575b1b53fba80001bd3288,5f1824ff1542050621660c1f,0.19,marieleanne,,,6.0,1.0,0.0,1855.5989988617948,j,100.33600113820285,j,test,1.0,,,
,p5cd_probe,37,160759,0.0-6.0-1.0-0.4,f078aa2862041786868ef9f2ad23336df49386eb98fe8259951830bdf7c3dbfd,5c575b1b53fba80001bd3288,"[127, 143, 49, 161, 248, 108, 17, 169, 57, 159, 214, 123, 197, 69, 116, 196, 48, 122, 236, 152, 115, 220, 104, 14, 25, 74, 110, 46, 45, 178, 117, 134]",5f180469d29f570181bfb241,5c575b1b53fba80001bd3288,5f1824ff1542050621660c1f,0.19,marieleanne,,,4.0,1.0,1.0,1857.0633261935727,f,37.96167380642146,j,test,0.0,,,
,p5cd_probe,38,163305,0.0-6.0-1.0-0.5,f078aa2862041786868ef9f2ad23336df49386eb98fe8259951830bdf7c3dbfd,5c575b1b53fba80001bd3288,"[127, 143, 49, 161, 248, 108, 17, 169, 57, 159, 214, 123, 197, 69, 116, 196, 48, 122, 236, 152, 115, 220, 104, 14, 25, 74, 110, 46, 45, 178, 117, 134]",5f180469d29f570181bfb241,5c575b1b53fba80001bd3288,5f1824ff1542050621660c1f,0.19,marieleanne,,,2.0,1.0,1.0,1177.7973242967564,j,199.85767570324242,j,test,1.0,,,
,p5cd_probe,39,165883,0.0-6.0-1.0-0.6,f078aa2862041786868ef9f2ad23336df49386eb98fe8259951830bdf7c3dbfd,5c575b1b53fba80001bd3288,"[127, 143, 49, 161, 248, 108, 17, 169, 57, 159, 214, 123, 197, 69, 116, 196, 48, 122, 236, 152, 115, 220, 104, 14, 25, 74, 110, 46, 45, 178, 117, 134]",5f180469d29f570181bfb241,5c575b1b53fba80001bd3288,5f1824ff1542050621660c1f,0.19,marieleanne,,,2.0,0.0,0.0,966.7799343595398,f,448.21506564039737,f,test,1.0,,,
,p5cd_probe,40,168429,0.0-6.0-1.0-0.7,f078aa2862041786868ef9f2ad23336df49386eb98fe8259951830bdf7c3dbfd,5c575b1b53fba80001bd3288,"[127, 143, 49, 161, 248, 108, 17, 169, 57, 159, 214, 123, 197, 69, 116, 196, 48, 122, 236, 152, 115, 220, 104, 14, 25, 74, 110, 46, 45, 178, 117, 134]",5f180469d29f570181bfb241,5c575b1b53fba80001bd3288,5f1824ff1542050621660c1f,0.19,marieleanne,,,8.0,1.0,0.0,1334.9759025369713,j,44.27909746300429,j,test,1.0,,,
,p5cd_probe,41,172523,0.0-6.0-1.0-0.8,f078aa2862041786868ef9f2ad23336df49386eb98fe8259951830bdf7c3dbfd,5c575b1b53fba80001bd3288,"[127, 143, 49, 161, 248, 108, 17, 169, 57, 159, 214, 123, 197, 69, 116, 196, 48, 122, 236, 152, 115, 220, 104, 14, 25, 74, 110, 46, 45, 178, 117, 134]",5f180469d29f570181bfb241,5c575b1b53fba80001bd3288,5f1824ff1542050621660c1f,0.19,marieleanne,,,2.0,0.0,1.0,2614.4632601799676,f,323.93673982005566,f,test,1.0,,,
,p5cd_probe,42,175085,0.0-6.0-1.0-0.9,f078aa2862041786868ef9f2ad23336df49386eb98fe8259951830bdf7c3dbfd,5c575b1b53fba80001bd3288,"[127, 143, 49, 161, 248, 108, 17, 169, 57, 159, 214, 123, 197, 69, 116, 196, 48, 122, 236, 152, 115, 220, 104, 14, 25, 74, 110, 46, 45, 178, 117, 134]",5f180469d29f570181bfb241,5c575b1b53fba80001bd3288,5f1824ff1542050621660c1f,0.19,marieleanne,,,6.0,1.0,1.0,1268.2239627363742,j,131.07103726360947,j,test,1.0,,,
,p5cd_probe,43,178014,0.0-6.0-1.0-0.10,f078aa2862041786868ef9f2ad23336df49386eb98fe8259951830bdf7c3dbfd,5c575b1b53fba80001bd3288,"[127, 143, 49, 161, 248, 108, 17, 169, 57, 159, 214, 123, 197, 69, 116, 196, 48, 122, 236, 152, 115, 220, 104, 14, 25, 74, 110, 46, 45, 178, 117, 134]",5f180469d29f570181bfb241,5c575b1b53fba80001bd3288,5f1824ff1542050621660c1f,0.19,marieleanne,,,8.0,0.0,0.0,1395.4047526669747,f,379.8402473330498,f,test,1.0,,,
,p5cd_probe,44,180693,0.0-6.0-1.0-0.11,f078aa2862041786868ef9f2ad23336df49386eb98fe8259951830bdf7c3dbfd,5c575b1b53fba80001bd3288,"[127, 143, 49, 161, 248, 108, 17, 169, 57, 159, 214, 123, 197, 69, 116, 196, 48, 122, 236, 152, 115, 220, 104, 14, 25, 74, 110, 46, 45, 178, 117, 134]",5f180469d29f570181bfb241,5c575b1b53fba80001bd3288,5f1824ff1542050621660c1f,0.19,marieleanne,,,2.0,1.0,0.0,1032.2486604081641,j,492.0513395918533,j,test,1.0,,,
,p5cd_probe,45,188547,0.0-6.0-1.0-0.12,f078aa2862041786868ef9f2ad23336df49386eb98fe8259951830bdf7c3dbfd,5c575b1b53fba80001bd3288,"[127, 143, 49, 161, 248, 108, 17, 169, 57, 159, 214, 123, 197, 69, 116, 196, 48, 122, 236, 152, 115, 220, 104, 14, 25, 74, 110, 46, 45, 178, 117, 134]",5f180469d29f570181bfb241,5c575b1b53fba80001bd3288,5f1824ff1542050621660c1f,0.19,marieleanne,,,6.0,0.0,1.0,6207.996775913169,j,480.383224086836,f,test,0.0,,,
,p5cd_probe,46,191477,0.0-6.0-1.0-0.13,f078aa2862041786868ef9f2ad23336df49386eb98fe8259951830bdf7c3dbfd,5c575b1b53fba80001bd3288,"[127, 143, 49, 161, 248, 108, 17, 169, 57, 159, 214, 123, 197, 69, 116, 196, 48, 122, 236, 152, 115, 220, 104, 14, 25, 74, 110, 46, 45, 178, 117, 134]",5f180469d29f570181bfb241,5c575b1b53fba80001bd3288,5f1824ff1542050621660c1f,0.19,marieleanne,,,8.0,0.0,1.0,1579.8055564127571,f,182.109443587251,f,test,1.0,,,
,p5cd_probe,47,195919,0.0-6.0-1.0-0.14,f078aa2862041786868ef9f2ad23336df49386eb98fe8259951830bdf7c3dbfd,5c575b1b53fba80001bd3288,"[127, 143, 49, 161, 248, 108, 17, 169, 57, 159, 214, 123, 197, 69, 116, 196, 48, 122, 236, 152, 115, 220, 104, 14, 25, 74, 110, 46, 45, 178, 117, 134]",5f180469d29f570181bfb241,5c575b1b53fba80001bd3288,5f1824ff1542050621660c1f,0.19,marieleanne,,,6.0,0.0,0.0,2842.0218813758693,j,432.9131186241284,f,test,0.0,,,
,p5cd_probe,48,199430,0.0-6.0-1.0-0.15,f078aa2862041786868ef9f2ad23336df49386eb98fe8259951830bdf7c3dbfd,5c575b1b53fba80001bd3288,"[127, 143, 49, 161, 248, 108, 17, 169, 57, 159, 214, 123, 197, 69, 116, 196, 48, 122, 236, 152, 115, 220, 104, 14, 25, 74, 110, 46, 45, 178, 117, 134]",5f180469d29f570181bfb241,5c575b1b53fba80001bd3288,5f1824ff1542050621660c1f,0.19,marieleanne,,,8.0,1.0,1.0,2041.8058347075712,f,306.47416529245675,j,test,0.0,,,
,p5Text,49,211572,0.0-6.0-2.0,f078aa2862041786868ef9f2ad23336df49386eb98fe8259951830bdf7c3dbfd,5c575b1b53fba80001bd3288,"[127, 143, 49, 161, 248, 108, 17, 169, 57, 159, 214, 123, 197, 69, 116, 196, 48, 122, 236, 152, 115, 220, 104, 14, 25, 74, 110, 46, 45, 178, 117, 134]",5f180469d29f570181bfb241,5c575b1b53fba80001bd3288,5f1824ff1542050621660c1f,0.19,marieleanne,,,,,,,,,,,,,,
,p5Text,50,212980,0.0-6.0-0.1,f078aa2862041786868ef9f2ad23336df49386eb98fe8259951830bdf7c3dbfd,5c575b1b53fba80001bd3288,"[127, 143, 49, 161, 248, 108, 17, 169, 57, 159, 214, 123, 197, 69, 116, 196, 48, 122, 236, 152, 115, 220, 104, 14, 25, 74, 110, 46, 45, 178, 117, 134]",5f180469d29f570181bfb241,5c575b1b53fba80001bd3288,5f1824ff1542050621660c1f,0.19,marieleanne,,,,,,,,,,,,,,
,p5cd_probe,51,215737,0.0-6.0-1.1-0.16,f078aa2862041786868ef9f2ad23336df49386eb98fe8259951830bdf7c3dbfd,5c575b1b53fba80001bd3288,"[127, 143, 49, 161, 248, 108, 17, 169, 57, 159, 214, 123, 197, 69, 116, 196, 48, 122, 236, 152, 115, 220, 104, 14, 25, 74, 110, 46, 45, 178, 117, 134]",5f180469d29f570181bfb241,5c575b1b53fba80001bd3288,5f1824ff1542050621660c1f,0.19,marieleanne,,,8.0,1.0,1.0,1526.8448155179503,j,66.45518448203802,j,test,1.0,,,
,p5cd_probe,52,218033,0.0-6.0-1.1-0.17,f078aa2862041786868ef9f2ad23336df49386eb98fe8259951830bdf7c3dbfd,5c575b1b53fba80001bd3288,"[127, 143, 49, 161, 248, 108, 17, 169, 57, 159, 214, 123, 197, 69, 116, 196, 48, 122, 236, 152, 115, 220, 104, 14, 25, 74, 110, 46, 45, 178, 117, 134]",5f180469d29f570181bfb241,5c575b1b53fba80001bd3288,5f1824ff1542050621660c1f,0.19,marieleanne,,,4.0,0.0,1.0,1034.5357669410005,f,107.23423305898905,f,test,1.0,,,
,p5cd_probe,53,220562,0.0-6.0-1.1-0.18,f078aa2862041786868ef9f2ad23336df49386eb98fe8259951830bdf7c3dbfd,5c575b1b53fba80001bd3288,"[127, 143, 49, 161, 248, 108, 17, 169, 57, 159, 214, 123, 197, 69, 116, 196, 48, 122, 236, 152, 115, 220, 104, 14, 25, 74, 110, 46, 45, 178, 117, 134]",5f180469d29f570181bfb241,5c575b1b53fba80001bd3288,5f1824ff1542050621660c1f,0.19,marieleanne,,,2.0,1.0,1.0,1166.7094904030673,j,200.6855095969513,j,test,1.0,,,
,p5cd_probe,54,223142,0.0-6.0-1.1-0.19,f078aa2862041786868ef9f2ad23336df49386eb98fe8259951830bdf7c3dbfd,5c575b1b53fba80001bd3288,"[127, 143, 49, 161, 248, 108, 17, 169, 57, 159, 214, 123, 197, 69, 116, 196, 48, 122, 236, 152, 115, 220, 104, 14, 25, 74, 110, 46, 45, 178, 117, 134]",5f180469d29f570181bfb241,5c575b1b53fba80001bd3288,5f1824ff1542050621660c1f,0.19,marieleanne,,,2.0,0.0,0.0,916.30822607546,f,497.1717739244923,f,test,1.0,,,
,p5cd_probe,55,226503,0.0-6.0-1.1-0.20,f078aa2862041786868ef9f2ad23336df49386eb98fe8259951830bdf7c3dbfd,5c575b1b53fba80001bd3288,"[127, 143, 49, 161, 248, 108, 17, 169, 57, 159, 214, 123, 197, 69, 116, 196, 48, 122, 236, 152, 115, 220, 104, 14, 25, 74, 110, 46, 45, 178, 117, 134]",5f180469d29f570181bfb241,5c575b1b53fba80001bd3288,5f1824ff1542050621660c1f,0.19,marieleanne,,,6.0,1.0,0.0,1994.326735291368,f,204.743264708668,j,test,0.0,,,
,p5cd_probe,56,229864,0.0-6.0-1.1-0.21,f078aa2862041786868ef9f2ad23336df49386eb98fe8259951830bdf7c3dbfd,5c575b1b53fba80001bd3288,"[127, 143, 49, 161, 248, 108, 17, 169, 57, 159, 214, 123, 197, 69, 116, 196, 48, 122, 236, 152, 115, 220, 104, 14, 25, 74, 110, 46, 45, 178, 117, 134]",5f180469d29f570181bfb241,5c575b1b53fba80001bd3288,5f1824ff1542050621660c1f,0.19,marieleanne,,,2.0,0.0,1.0,1790.2353710109892,f,403.8346289889887,f,test,1.0,,,
,p5cd_probe,57,232460,0.0-6.0-1.1-0.22,f078aa2862041786868ef9f2ad23336df49386eb98fe8259951830bdf7c3dbfd,5c575b1b53fba80001bd3288,"[127, 143, 49, 161, 248, 108, 17, 169, 57, 159, 214, 123, 197, 69, 116, 196, 48, 122, 236, 152, 115, 220, 104, 14, 25, 74, 110, 46, 45, 178, 117, 134]",5f180469d29f570181bfb241,5c575b1b53fba80001bd3288,5f1824ff1542050621660c1f,0.19,marieleanne,,,6.0,0.0,1.0,1160.34303437185,f,279.70196562819183,f,test,1.0,,,
,p5cd_probe,58,234939,0.0-6.0-1.1-0.23,f078aa2862041786868ef9f2ad23336df49386eb98fe8259951830bdf7c3dbfd,5c575b1b53fba80001bd3288,"[127, 143, 49, 161, 248, 108, 17, 169, 57, 159, 214, 123, 197, 69, 116, 196, 48, 122, 236, 152, 115, 220, 104, 14, 25, 74, 110, 46, 45, 178, 117, 134]",5f180469d29f570181bfb241,5c575b1b53fba80001bd3288,5f1824ff1542050621660c1f,0.19,marieleanne,,,8.0,1.0,0.0,1269.2997942191141,j,43.185205780901015,j,test,1.0,,,
,p5cd_probe,59,237135,0.0-6.0-1.1-0.24,f078aa2862041786868ef9f2ad23336df49386eb98fe8259951830bdf7c3dbfd,5c575b1b53fba80001bd3288,"[127, 143, 49, 161, 248, 108, 17, 169, 57, 159, 214, 123, 197, 69, 116, 196, 48, 122, 236, 152, 115, 220, 104, 14, 25, 74, 110, 46, 45, 178, 117, 134]",5f180469d29f570181bfb241,5c575b1b53fba80001bd3288,5f1824ff1542050621660c1f,0.19,marieleanne,,,6.0,1.0,1.0,951.7393629023572,j,88.48563709761947,j,test,1.0,,,
,p5cd_probe,60,239731,0.0-6.0-1.1-0.25,f078aa2862041786868ef9f2ad23336df49386eb98fe8259951830bdf7c3dbfd,5c575b1b53fba80001bd3288,"[127, 143, 49, 161, 248, 108, 17, 169, 57, 159, 214, 123, 197, 69, 116, 196, 48, 122, 236, 152, 115, 220, 104, 14, 25, 74, 110, 46, 45, 178, 117, 134]",5f180469d29f570181bfb241,5c575b1b53fba80001bd3288,5f1824ff1542050621660c1f,0.19,marieleanne,,,6.0,0.0,0.0,1053.0485502319352,f,377.85144976805896,f,test,1.0,,,
,p5cd_probe,61,242760,0.0-6.0-1.1-0.26,f078aa2862041786868ef9f2ad23336df49386eb98fe8259951830bdf7c3dbfd,5c575b1b53fba80001bd3288,"[127, 143, 49, 161, 248, 108, 17, 169, 57, 159, 214, 123, 197, 69, 116, 196, 48, 122, 236, 152, 115, 220, 104, 14, 25, 74, 110, 46, 45, 178, 117, 134]",5f180469d29f570181bfb241,5c575b1b53fba80001bd3288,5f1824ff1542050621660c1f,0.19,marieleanne,,,4.0,1.0,1.0,1379.1119190081954,f,489.2630809918046,j,test,0.0,,,
,p5cd_probe,62,245755,0.0-6.0-1.1-0.27,f078aa2862041786868ef9f2ad23336df49386eb98fe8259951830bdf7c3dbfd,5c575b1b53fba80001bd3288,"[127, 143, 49, 161, 248, 108, 17, 169, 57, 159, 214, 123, 197, 69, 116, 196, 48, 122, 236, 152, 115, 220, 104, 14, 25, 74, 110, 46, 45, 178, 117, 134]",5f180469d29f570181bfb241,5c575b1b53fba80001bd3288,5f1824ff1542050621660c1f,0.19,marieleanne,,,4.0,0.0,0.0,1358.1876315526897,j,481.0873684473336,f,test,0.0,,,
,p5cd_probe,63,247852,0.0-6.0-1.1-0.28,f078aa2862041786868ef9f2ad23336df49386eb98fe8259951830bdf7c3dbfd,5c575b1b53fba80001bd3288,"[127, 143, 49, 161, 248, 108, 17, 169, 57, 159, 214, 123, 197, 69, 116, 196, 48, 122, 236, 152, 115, 220, 104, 14, 25, 74, 110, 46, 45, 178, 117, 134]",5f180469d29f570181bfb241,5c575b1b53fba80001bd3288,5f1824ff1542050621660c1f,0.19,marieleanne,,,4.0,1.0,0.0,850.0009175150772,f,91.67908248491585,j,test,0.0,,,
,p5cd_probe,64,250265,0.0-6.0-1.1-0.29,f078aa2862041786868ef9f2ad23336df49386eb98fe8259951830bdf7c3dbfd,5c575b1b53fba80001bd3288,"[127, 143, 49, 161, 248, 108, 17, 169, 57, 159, 214, 123, 197, 69, 116, 196, 48, 122, 236, 152, 115, 220, 104, 14, 25, 74, 110, 46, 45, 178, 117, 134]",5f180469d29f570181bfb241,5c575b1b53fba80001bd3288,5f1824ff1542050621660c1f,0.19,marieleanne,,,2.0,1.0,0.0,1221.6170532816323,j,33.012946718372405,j,test,1.0,,,
,p5cd_probe,65,252611,0.0-6.0-1.1-0.30,f078aa2862041786868ef9f2ad23336df49386eb98fe8259951830bdf7c3dbfd,5c575b1b53fba80001bd3288,"[127, 143, 49, 161, 248, 108, 17, 169, 57, 159, 214, 123, 197, 69, 116, 196, 48, 122, 236, 152, 115, 220, 104, 14, 25, 74, 110, 46, 45, 178, 117, 134]",5f180469d29f570181bfb241,5c575b1b53fba80001bd3288,5f1824ff1542050621660c1f,0.19,marieleanne,,,8.0,0.0,1.0,1007.1407362509635,j,181.6842637490481,f,test,0.0,,,
,p5cd_probe,66,254824,0.0-6.0-1.1-0.31,f078aa2862041786868ef9f2ad23336df49386eb98fe8259951830bdf7c3dbfd,5c575b1b53fba80001bd3288,"[127, 143, 49, 161, 248, 108, 17, 169, 57, 159, 214, 123, 197, 69, 116, 196, 48, 122, 236, 152, 115, 220, 104, 14, 25, 74, 110, 46, 45, 178, 117, 134]",5f180469d29f570181bfb241,5c575b1b53fba80001bd3288,5f1824ff1542050621660c1f,0.19,marieleanne,,,8.0,0.0,0.0,936.281745688786,f,109.9182543111965,f,test,1.0,,,
,p5Text,67,257557,0.0-6.0-2.1,f078aa2862041786868ef9f2ad23336df49386eb98fe8259951830bdf7c3dbfd,5c575b1b53fba80001bd3288,"[127, 143, 49, 161, 248, 108, 17, 169, 57, 159, 214, 123, 197, 69, 116, 196, 48, 122, 236, 152, 115, 220, 104, 14, 25, 74, 110, 46, 45, 178, 117, 134]",5f180469d29f570181bfb241,5c575b1b53fba80001bd3288,5f1824ff1542050621660c1f,0.19,marieleanne,,,,,,,,,,,,,,
,p5Text,68,258374,0.0-6.0-0.2,f078aa2862041786868ef9f2ad23336df49386eb98fe8259951830bdf7c3dbfd,5c575b1b53fba80001bd3288,"[127, 143, 49, 161, 248, 108, 17, 169, 57, 159, 214, 123, 197, 69, 116, 196, 48, 122, 236, 152, 115, 220, 104, 14, 25, 74, 110, 46, 45, 178, 117, 134]",5f180469d29f570181bfb241,5c575b1b53fba80001bd3288,5f1824ff1542050621660c1f,0.19,marieleanne,,,,,,,,,,,,,,
,p5cd_probe,69,260831,0.0-6.0-1.2-0.32,f078aa2862041786868ef9f2ad23336df49386eb98fe8259951830bdf7c3dbfd,5c575b1b53fba80001bd3288,"[127, 143, 49, 161, 248, 108, 17, 169, 57, 159, 214, 123, 197, 69, 116, 196, 48, 122, 236, 152, 115, 220, 104, 14, 25, 74, 110, 46, 45, 178, 117, 134]",5f180469d29f570181bfb241,5c575b1b53fba80001bd3288,5f1824ff1542050621660c1f,0.19,marieleanne,,,8.0,0.0,1.0,845.2174310928967,j,450.4175689071417,f,test,0.0,,,
,p5cd_probe,70,263893,0.0-6.0-1.2-0.33,f078aa2862041786868ef9f2ad23336df49386eb98fe8259951830bdf7c3dbfd,5c575b1b53fba80001bd3288,"[127, 143, 49, 161, 248, 108, 17, 169, 57, 159, 214, 123, 197, 69, 116, 196, 48, 122, 236, 152, 115, 220, 104, 14, 25, 74, 110, 46, 45, 178, 117, 134]",5f180469d29f570181bfb241,5c575b1b53fba80001bd3288,5f1824ff1542050621660c1f,0.19,marieleanne,,,6.0,1.0,0.0,1616.7733823202143,j,277.73161767981946,j,test,1.0,,,
,p5cd_probe,71,266505,0.0-6.0-1.2-0.34,f078aa2862041786868ef9f2ad23336df49386eb98fe8259951830bdf7c3dbfd,5c575b1b53fba80001bd3288,"[127, 143, 49, 161, 248, 108, 17, 169, 57, 159, 214, 123, 197, 69, 116, 196, 48, 122, 236, 152, 115, 220, 104, 14, 25, 74, 110, 46, 45, 178, 117, 134]",5f180469d29f570181bfb241,5c575b1b53fba80001bd3288,5f1824ff1542050621660c1f,0.19,marieleanne,,,8.0,1.0,0.0,1188.613779899897,f,264.106220100075,j,test,0.0,,,
,p5cd_probe,72,268901,0.0-6.0-1.2-0.35,f078aa2862041786868ef9f2ad23336df49386eb98fe8259951830bdf7c3dbfd,5c575b1b53fba80001bd3288,"[127, 143, 49, 161, 248, 108, 17, 169, 57, 159, 214, 123, 197, 69, 116, 196, 48, 122, 236, 152, 115, 220, 104, 14, 25, 74, 110, 46, 45, 178, 117, 134]",5f180469d29f570181bfb241,5c575b1b53fba80001bd3288,5f1824ff1542050621660c1f,0.19,marieleanne,,,4.0,0.0,1.0,1203.104010397161,f,29.960989602841437,f,test,1.0,,,
,p5cd_probe,73,271048,0.0-6.0-1.2-0.36,f078aa2862041786868ef9f2ad23336df49386eb98fe8259951830bdf7c3dbfd,5c575b1b53fba80001bd3288,"[127, 143, 49, 161, 248, 108, 17, 169, 57, 159, 214, 123, 197, 69, 116, 196, 48, 122, 236, 152, 115, 220, 104, 14, 25, 74, 110, 46, 45, 178, 117, 134]",5f180469d29f570181bfb241,5c575b1b53fba80001bd3288,5f1824ff1542050621660c1f,0.19,marieleanne,,,6.0,0.0,0.0,882.2396162947407,j,97.98538370523602,f,test,0.0,,,
,p5cd_probe,74,273161,0.0-6.0-1.2-0.37,f078aa2862041786868ef9f2ad23336df49386eb98fe8259951830bdf7c3dbfd,5c575b1b53fba80001bd3288,"[127, 143, 49, 161, 248, 108, 17, 169, 57, 159, 214, 123, 197, 69, 116, 196, 48, 122, 236, 152, 115, 220, 104, 14, 25, 74, 110, 46, 45, 178, 117, 134]",5f180469d29f570181bfb241,5c575b1b53fba80001bd3288,5f1824ff1542050621660c1f,0.19,marieleanne,,,2.0,0.0,1.0,785.8124503722647,f,160.38254962768406,f,test,1.0,,,
,p5cd_probe,75,276422,0.0-6.0-1.2-0.38,f078aa2862041786868ef9f2ad23336df49386eb98fe8259951830bdf7c3dbfd,5c575b1b53fba80001bd3288,"[127, 143, 49, 161, 248, 108, 17, 169, 57, 159, 214, 123, 197, 69, 116, 196, 48, 122, 236, 152, 115, 220, 104, 14, 25, 74, 110, 46, 45, 178, 117, 134]",5f180469d29f570181bfb241,5c575b1b53fba80001bd3288,5f1824ff1542050621660c1f,0.19,marieleanne,,,8.0,1.0,1.0,1629.4575034441077,j,475.4374965559691,j,test,1.0,,,
,p5cd_probe,76,278985,0.0-6.0-1.2-0.39,f078aa2862041786868ef9f2ad23336df49386eb98fe8259951830bdf7c3dbfd,5c575b1b53fba80001bd3288,"[127, 143, 49, 161, 248, 108, 17, 169, 57, 159, 214, 123, 197, 69, 116, 196, 48, 122, 236, 152, 115, 220, 104, 14, 25, 74, 110, 46, 45, 178, 117, 134]",5f180469d29f570181bfb241,5c575b1b53fba80001bd3288,5f1824ff1542050621660c1f,0.19,marieleanne,,,4.0,0.0,0.0,1182.0398230373976,f,222.91017696261406,f,test,1.0,,,
,p5cd_probe,77,280716,0.0-6.0-1.2-0.40,f078aa2862041786868ef9f2ad23336df49386eb98fe8259951830bdf7c3dbfd,5c575b1b53fba80001bd3288,"[127, 143, 49, 161, 248, 108, 17, 169, 57, 159, 214, 123, 197, 69, 116, 196, 48, 122, 236, 152, 115, 220, 104, 14, 25, 74, 110, 46, 45, 178, 117, 134]",5f180469d29f570181bfb241,5c575b1b53fba80001bd3288,5f1824ff1542050621660c1f,0.19,marieleanne,,,6.0,0.0,1.0,468.654433155898,j,105.28056684415787,f,test,0.0,,,
,p5cd_probe,78,283112,0.0-6.0-1.2-0.41,f078aa2862041786868ef9f2ad23336df49386eb98fe8259951830bdf7c3dbfd,5c575b1b53fba80001bd3288,"[127, 143, 49, 161, 248, 108, 17, 169, 57, 159, 214, 123, 197, 69, 116, 196, 48, 122, 236, 152, 115, 220, 104, 14, 25, 74, 110, 46, 45, 178, 117, 134]",5f180469d29f570181bfb241,5c575b1b53fba80001bd3288,5f1824ff1542050621660c1f,0.19,marieleanne,,,2.0,0.0,0.0,912.2917030890821,f,331.3732969108969,f,test,1.0,,,
,p5cd_probe,79,285741,0.0-6.0-1.2-0.42,f078aa2862041786868ef9f2ad23336df49386eb98fe8259951830bdf7c3dbfd,5c575b1b53fba80001bd3288,"[127, 143, 49, 161, 248, 108, 17, 169, 57, 159, 214, 123, 197, 69, 116, 196, 48, 122, 236, 152, 115, 220, 104, 14, 25, 74, 110, 46, 45, 178, 117, 134]",5f180469d29f570181bfb241,5c575b1b53fba80001bd3288,5f1824ff1542050621660c1f,0.19,marieleanne,,,4.0,1.0,0.0,1089.1635280796327,j,381.0664719203487,j,test,1.0,,,
,p5cd_probe,80,292763,0.0-6.0-1.2-0.43,f078aa2862041786868ef9f2ad23336df49386eb98fe8259951830bdf7c3dbfd,5c575b1b53fba80001bd3288,"[127, 143, 49, 161, 248, 108, 17, 169, 57, 159, 214, 123, 197, 69, 116, 196, 48, 122, 236, 152, 115, 220, 104, 14, 25, 74, 110, 46, 45, 178, 117, 134]",5f180469d29f570181bfb241,5c575b1b53fba80001bd3288,5f1824ff1542050621660c1f,0.19,marieleanne,,,4.0,1.0,1.0,5602.523131944356,f,260.4818680556491,j,test,0.0,,,
,p5cd_probe,81,295225,0.0-6.0-1.2-0.44,f078aa2862041786868ef9f2ad23336df49386eb98fe8259951830bdf7c3dbfd,5c575b1b53fba80001bd3288,"[127, 143, 49, 161, 248, 108, 17, 169, 57, 159, 214, 123, 197, 69, 116, 196, 48, 122, 236, 152, 115, 220, 104, 14, 25, 74, 110, 46, 45, 178, 117, 134]",5f180469d29f570181bfb241,5c575b1b53fba80001bd3288,5f1824ff1542050621660c1f,0.19,marieleanne,,,2.0,1.0,1.0,932.2856720056152,f,374.8543279943988,j,test,0.0,,,
,p5cd_probe,82,297139,0.0-6.0-1.2-0.45,f078aa2862041786868ef9f2ad23336df49386eb98fe8259951830bdf7c3dbfd,5c575b1b53fba80001bd3288,"[127, 143, 49, 161, 248, 108, 17, 169, 57, 159, 214, 123, 197, 69, 116, 196, 48, 122, 236, 152, 115, 220, 104, 14, 25, 74, 110, 46, 45, 178, 117, 134]",5f180469d29f570181bfb241,5c575b1b53fba80001bd3288,5f1824ff1542050621660c1f,0.19,marieleanne,,,6.0,1.0,1.0,645.7735373740434,j,102.60146262589842,j,test,1.0,,,
,p5cd_probe,83,299402,0.0-6.0-1.2-0.46,f078aa2862041786868ef9f2ad23336df49386eb98fe8259951830bdf7c3dbfd,5c575b1b53fba80001bd3288,"[127, 143, 49, 161, 248, 108, 17, 169, 57, 159, 214, 123, 197, 69, 116, 196, 48, 122, 236, 152, 115, 220, 104, 14, 25, 74, 110, 46, 45, 178, 117, 134]",5f180469d29f570181bfb241,5c575b1b53fba80001bd3288,5f1824ff1542050621660c1f,0.19,marieleanne,,,8.0,0.0,0.0,744.3831348397653,j,366.3118651602417,f,test,0.0,,,
,p5cd_probe,84,301865,0.0-6.0-1.2-0.47,f078aa2862041786868ef9f2ad23336df49386eb98fe8259951830bdf7c3dbfd,5c575b1b53fba80001bd3288,"[127, 143, 49, 161, 248, 108, 17, 169, 57, 159, 214, 123, 197, 69, 116, 196, 48, 122, 236, 152, 115, 220, 104, 14, 25, 74, 110, 46, 45, 178, 117, 134]",5f180469d29f570181bfb241,5c575b1b53fba80001bd3288,5f1824ff1542050621660c1f,0.19,marieleanne,,,2.0,1.0,0.0,995.7837470244267,f,307.48625297565013,j,test,0.0,,,
,p5Text,85,307643,0.0-6.0-2.2,f078aa2862041786868ef9f2ad23336df49386eb98fe8259951830bdf7c3dbfd,5c575b1b53fba80001bd3288,"[127, 143, 49, 161, 248, 108, 17, 169, 57, 159, 214, 123, 197, 69, 116, 196, 48, 122, 236, 152, 115, 220, 104, 14, 25, 74, 110, 46, 45, 178, 117, 134]",5f180469d29f570181bfb241,5c575b1b53fba80001bd3288,5f1824ff1542050621660c1f,0.19,marieleanne,,,,,,,,,,,,,,
,p5Text,86,308574,0.0-6.0-0.3,f078aa2862041786868ef9f2ad23336df49386eb98fe8259951830bdf7c3dbfd,5c575b1b53fba80001bd3288,"[127, 143, 49, 161, 248, 108, 17, 169, 57, 159, 214, 123, 197, 69, 116, 196, 48, 122, 236, 152, 115, 220, 104, 14, 25, 74, 110, 46, 45, 178, 117, 134]",5f180469d29f570181bfb241,5c575b1b53fba80001bd3288,5f1824ff1542050621660c1f,0.19,marieleanne,,,,,,,,,,,,,,
,p5cd_probe,87,311366,0.0-6.0-1.3-0.48,f078aa2862041786868ef9f2ad23336df49386eb98fe8259951830bdf7c3dbfd,5c575b1b53fba80001bd3288,"[127, 143, 49, 161, 248, 108, 17, 169, 57, 159, 214, 123, 197, 69, 116, 196, 48, 122, 236, 152, 115, 220, 104, 14, 25, 74, 110, 46, 45, 178, 117, 134]",5f180469d29f570181bfb241,5c575b1b53fba80001bd3288,5f1824ff1542050621660c1f,0.19,marieleanne,,,2.0,0.0,0.0,1237.3357290595304,f,391.60927094053477,f,test,1.0,,,
,p5cd_probe,88,313496,0.0-6.0-1.3-0.49,f078aa2862041786868ef9f2ad23336df49386eb98fe8259951830bdf7c3dbfd,5c575b1b53fba80001bd3288,"[127, 143, 49, 161, 248, 108, 17, 169, 57, 159, 214, 123, 197, 69, 116, 196, 48, 122, 236, 152, 115, 220, 104, 14, 25, 74, 110, 46, 45, 178, 117, 134]",5f180469d29f570181bfb241,5c575b1b53fba80001bd3288,5f1824ff1542050621660c1f,0.19,marieleanne,,,2.0,0.0,1.0,934.4215379958623,j,32.26846200414002,f,test,0.0,,,
,p5cd_probe,89,315809,0.0-6.0-1.3-0.50,f078aa2862041786868ef9f2ad23336df49386eb98fe8259951830bdf7c3dbfd,5c575b1b53fba80001bd3288,"[127, 143, 49, 161, 248, 108, 17, 169, 57, 159, 214, 123, 197, 69, 116, 196, 48, 122, 236, 152, 115, 220, 104, 14, 25, 74, 110, 46, 45, 178, 117, 134]",5f180469d29f570181bfb241,5c575b1b53fba80001bd3288,5f1824ff1542050621660c1f,0.19,marieleanne,,,4.0,1.0,1.0,793.1754312864505,f,365.5095687136054,j,test,0.0,,,
,p5cd_probe,90,317988,0.0-6.0-1.3-0.51,f078aa2862041786868ef9f2ad23336df49386eb98fe8259951830bdf7c3dbfd,5c575b1b53fba80001bd3288,"[127, 143, 49, 161, 248, 108, 17, 169, 57, 159, 214, 123, 197, 69, 116, 196, 48, 122, 236, 152, 115, 220, 104, 14, 25, 74, 110, 46, 45, 178, 117, 134]",5f180469d29f570181bfb241,5c575b1b53fba80001bd3288,5f1824ff1542050621660c1f,0.19,marieleanne,,,8.0,1.0,0.0,668.9563354481943,j,356.5236645517871,j,test,1.0,,,
,p5cd_probe,91,320285,0.0-6.0-1.3-0.52,f078aa2862041786868ef9f2ad23336df49386eb98fe8259951830bdf7c3dbfd,5c575b1b53fba80001bd3288,"[127, 143, 49, 161, 248, 108, 17, 169, 57, 159, 214, 123, 197, 69, 116, 196, 48, 122, 236, 152, 115, 220, 104, 14, 25, 74, 110, 46, 45, 178, 117, 134]",5f180469d29f570181bfb241,5c575b1b53fba80001bd3288,5f1824ff1542050621660c1f,0.19,marieleanne,,,8.0,0.0,1.0,788.2530338679207,f,348.82696613203734,f,test,1.0,,,
,p5cd_probe,92,322814,0.0-6.0-1.3-0.53,f078aa2862041786868ef9f2ad23336df49386eb98fe8259951830bdf7c3dbfd,5c575b1b53fba80001bd3288,"[127, 143, 49, 161, 248, 108, 17, 169, 57, 159, 214, 123, 197, 69, 116, 196, 48, 122, 236, 152, 115, 220, 104, 14, 25, 74, 110, 46, 45, 178, 117, 134]",5f180469d29f570181bfb241,5c575b1b53fba80001bd3288,5f1824ff1542050621660c1f,0.19,marieleanne,,,6.0,1.0,0.0,884.6369867247413,f,491.39301327522844,j,test,0.0,,,
,p5cd_probe,93,324811,0.0-6.0-1.3-0.54,f078aa2862041786868ef9f2ad23336df49386eb98fe8259951830bdf7c3dbfd,5c575b1b53fba80001bd3288,"[127, 143, 49, 161, 248, 108, 17, 169, 57, 159, 214, 123, 197, 69, 116, 196, 48, 122, 236, 152, 115, 220, 104, 14, 25, 74, 110, 46, 45, 178, 117, 134]",5f180469d29f570181bfb241,5c575b1b53fba80001bd3288,5f1824ff1542050621660c1f,0.19,marieleanne,,,8.0,0.0,0.0,701.9167440973106,j,129.51325590256602,f,test,0.0,,,
,p5cd_probe,94,326808,0.0-6.0-1.3-0.55,f078aa2862041786868ef9f2ad23336df49386eb98fe8259951830bdf7c3dbfd,5c575b1b53fba80001bd3288,"[127, 143, 49, 161, 248, 108, 17, 169, 57, 159, 214, 123, 197, 69, 116, 196, 48, 122, 236, 152, 115, 220, 104, 14, 25, 74, 110, 46, 45, 178, 117, 134]",5f180469d29f570181bfb241,5c575b1b53fba80001bd3288,5f1824ff1542050621660c1f,0.19,marieleanne,,,8.0,1.0,1.0,747.592433697253,f,83.39256630279124,j,test,0.0,,,
,p5cd_probe,95,330119,0.0-6.0-1.3-0.56,f078aa2862041786868ef9f2ad23336df49386eb98fe8259951830bdf7c3dbfd,5c575b1b53fba80001bd3288,"[127, 143, 49, 161, 248, 108, 17, 169, 57, 159, 214, 123, 197, 69, 116, 196, 48, 122, 236, 152, 115, 220, 104, 14, 25, 74, 110, 46, 45, 178, 117, 134]",5f180469d29f570181bfb241,5c575b1b53fba80001bd3288,5f1824ff1542050621660c1f,0.19,marieleanne,,,4.0,1.0,0.0,1791.117364061356,f,352.85763593856245,j,test,0.0,,,
,p5cd_probe,96,332266,0.0-6.0-1.3-0.57,f078aa2862041786868ef9f2ad23336df49386eb98fe8259951830bdf7c3dbfd,5c575b1b53fba80001bd3288,"[127, 143, 49, 161, 248, 108, 17, 169, 57, 159, 214, 123, 197, 69, 116, 196, 48, 122, 236, 152, 115, 220, 104, 14, 25, 74, 110, 46, 45, 178, 117, 134]",5f180469d29f570181bfb241,5c575b1b53fba80001bd3288,5f1824ff1542050621660c1f,0.19,marieleanne,,,4.0,0.0,0.0,914.7844678609399,f,67.50053213909268,f,test,1.0,,,
,p5cd_probe,97,334495,0.0-6.0-1.3-0.58,f078aa2862041786868ef9f2ad23336df49386eb98fe8259951830bdf7c3dbfd,5c575b1b53fba80001bd3288,"[127, 143, 49, 161, 248, 108, 17, 169, 57, 159, 214, 123, 197, 69, 116, 196, 48, 122, 236, 152, 115, 220, 104, 14, 25, 74, 110, 46, 45, 178, 117, 134]",5f180469d29f570181bfb241,5c575b1b53fba80001bd3288,5f1824ff1542050621660c1f,0.19,marieleanne,,,6.0,0.0,0.0,869.9886376298964,f,207.09636237006634,f,test,1.0,,,
,p5cd_probe,98,336610,0.0-6.0-1.3-0.59,f078aa2862041786868ef9f2ad23336df49386eb98fe8259951830bdf7c3dbfd,5c575b1b53fba80001bd3288,"[127, 143, 49, 161, 248, 108, 17, 169, 57, 159, 214, 123, 197, 69, 116, 196, 48, 122, 236, 152, 115, 220, 104, 14, 25, 74, 110, 46, 45, 178, 117, 134]",5f180469d29f570181bfb241,5c575b1b53fba80001bd3288,5f1824ff1542050621660c1f,0.19,marieleanne,,,2.0,1.0,1.0,813.6545535398182,j,148.25544646009803,j,test,1.0,,,
,p5cd_probe,99,339088,0.0-6.0-1.3-0.60,f078aa2862041786868ef9f2ad23336df49386eb98fe8259951830bdf7c3dbfd,5c575b1b53fba80001bd3288,"[127, 143, 49, 161, 248, 108, 17, 169, 57, 159, 214, 123, 197, 69, 116, 196, 48, 122, 236, 152, 115, 220, 104, 14, 25, 74, 110, 46, 45, 178, 117, 134]",5f180469d29f570181bfb241,5c575b1b53fba80001bd3288,5f1824ff1542050621660c1f,0.19,marieleanne,,,6.0,1.0,1.0,885.5890238478314,j,427.9009761521593,j,test,1.0,,,
,p5cd_probe,100,341352,0.0-6.0-1.3-0.61,f078aa2862041786868ef9f2ad23336df49386eb98fe8259951830bdf7c3dbfd,5c575b1b53fba80001bd3288,"[127, 143, 49, 161, 248, 108, 17, 169, 57, 159, 214, 123, 197, 69, 116, 196, 48, 122, 236, 152, 115, 220, 104, 14, 25, 74, 110, 46, 45, 178, 117, 134]",5f180469d29f570181bfb241,5c575b1b53fba80001bd3288,5f1824ff1542050621660c1f,0.19,marieleanne,,,6.0,0.0,1.0,882.0221748148906,f,221.27782518509775,f,test,1.0,,,
,p5cd_probe,101,343781,0.0-6.0-1.3-0.62,f078aa2862041786868ef9f2ad23336df49386eb98fe8259951830bdf7c3dbfd,5c575b1b53fba80001bd3288,"[127, 143, 49, 161, 248, 108, 17, 169, 57, 159, 214, 123, 197, 69, 116, 196, 48, 122, 236, 152, 115, 220, 104, 14, 25, 74, 110, 46, 45, 178, 117, 134]",5f180469d29f570181bfb241,5c575b1b53fba80001bd3288,5f1824ff1542050621660c1f,0.19,marieleanne,,,4.0,0.0,1.0,1197.8229372838396,j,78.1820627162233,f,test,0.0,,,
,p5cd_probe,102,345894,0.0-6.0-1.3-0.63,f078aa2862041786868ef9f2ad23336df49386eb98fe8259951830bdf7c3dbfd,5c575b1b53fba80001bd3288,"[127, 143, 49, 161, 248, 108, 17, 169, 57, 159, 214, 123, 197, 69, 116, 196, 48, 122, 236, 152, 115, 220, 104, 14, 25, 74, 110, 46, 45, 178, 117, 134]",5f180469d29f570181bfb241,5c575b1b53fba80001bd3288,5f1824ff1542050621660c1f,0.19,marieleanne,,,2.0,1.0,0.0,744.2137741838815,f,202.58622581604868,j,test,0.0,,,
,p5Text,103,347890,0.0-6.0-2.3,f078aa2862041786868ef9f2ad23336df49386eb98fe8259951830bdf7c3dbfd,5c575b1b53fba80001bd3288,"[127, 143, 49, 161, 248, 108, 17, 169, 57, 159, 214, 123, 197, 69, 116, 196, 48, 122, 236, 152, 115, 220, 104, 14, 25, 74, 110, 46, 45, 178, 117, 134]",5f180469d29f570181bfb241,5c575b1b53fba80001bd3288,5f1824ff1542050621660c1f,0.19,marieleanne,,,,,,,,,,,,,,
,survey-text,104,357554,0.0-7.0,f078aa2862041786868ef9f2ad23336df49386eb98fe8259951830bdf7c3dbfd,5c575b1b53fba80001bd3288,"[127, 143, 49, 161, 248, 108, 17, 169, 57, 159, 214, 123, 197, 69, 116, 196, 48, 122, 236, 152, 115, 220, 104, 14, 25, 74, 110, 46, 45, 178, 117, 134]",5f180469d29f570181bfb241,5c575b1b53fba80001bd3288,5f1824ff1542050621660c1f,0.19,marieleanne,9658.979999999923,,,,,,,,,,,,,"{""worker_comments"":"" ""}"
,p5Text,105,362449,0.0-8.0,f078aa2862041786868ef9f2ad23336df49386eb98fe8259951830bdf7c3dbfd,5c575b1b53fba80001bd3288,"[127, 143, 49, 161, 248, 108, 17, 169, 57, 159, 214, 123, 197, 69, 116, 196, 48, 122, 236, 152, 115, 220, 104, 14, 25, 74, 110, 46, 45, 178, 117, 134]",5f180469d29f570181bfb241,5c575b1b53fba80001bd3288,5f1824ff1542050621660c1f,0.19,marieleanne,,,,,,,,,,,,,,
1.0,fullscreen,0,4997,0.0-0.0,f078aa2862041786868ef9f2ad23336df49386eb98fe8259951830bdf7c3dbfd,5f11ab6d62b89d048d6ad245,"[31, 251, 179, 87, 213, 12, 72, 133, 171, 224, 140, 210, 16, 4, 124, 6, 156, 182, 118, 83, 252, 108, 227, 56, 22, 125, 36, 196, 135, 15, 98, 14]",5f180469d29f570181bfb241,5f11ab6d62b89d048d6ad245,5f1824a05e92c404f739afa6,0.21,JimmyJim,,,,,,,,,,,,,,
,external-html,1,16095,0.0-1.0,f078aa2862041786868ef9f2ad23336df49386eb98fe8259951830bdf7c3dbfd,5f11ab6d62b89d048d6ad245,"[31, 251, 179, 87, 213, 12, 72, 133, 171, 224, 140, 210, 16, 4, 124, 6, 156, 182, 118, 83, 252, 108, 227, 56, 22, 125, 36, 196, 135, 15, 98, 14]",5f180469d29f570181bfb241,5f11ab6d62b89d048d6ad245,5f1824a05e92c404f739afa6,0.21,JimmyJim,11062.265000015032,nickname.html,,,,,,,,,,,,
,p5Text,2,24811,0.0-2.0,f078aa2862041786868ef9f2ad23336df49386eb98fe8259951830bdf7c3dbfd,5f11ab6d62b89d048d6ad245,"[31, 251, 179, 87, 213, 12, 72, 133, 171, 224, 140, 210, 16, 4, 124, 6, 156, 182, 118, 83, 252, 108, 227, 56, 22, 125, 36, 196, 135, 15, 98, 14]",5f180469d29f570181bfb241,5f11ab6d62b89d048d6ad245,5f1824a05e92c404f739afa6,0.21,JimmyJim,,,,,,,,,,,,,,
,p5Text,3,51367,0.0-3.0-0.0,f078aa2862041786868ef9f2ad23336df49386eb98fe8259951830bdf7c3dbfd,5f11ab6d62b89d048d6ad245,"[31, 251, 179, 87, 213, 12, 72, 133, 171, 224, 140, 210, 16, 4, 124, 6, 156, 182, 118, 83, 252, 108, 227, 56, 22, 125, 36, 196, 135, 15, 98, 14]",5f180469d29f570181bfb241,5f11ab6d62b89d048d6ad245,5f1824a05e92c404f739afa6,0.21,JimmyJim,,,,,,,,,,,,,,
,p5cd_probe,4,54514,0.0-3.0-1.0-0.0,f078aa2862041786868ef9f2ad23336df49386eb98fe8259951830bdf7c3dbfd,5f11ab6d62b89d048d6ad245,"[31, 251, 179, 87, 213, 12, 72, 133, 171, 224, 140, 210, 16, 4, 124, 6, 156, 182, 118, 83, 252, 108, 227, 56, 22, 125, 36, 196, 135, 15, 98, 14]",5f180469d29f570181bfb241,5f11ab6d62b89d048d6ad245,5f1824a05e92c404f739afa6,0.21,JimmyJim,,,4.0,0.0,1.0,1368.4203251032159,f,262.30967487208545,f,practice,1.0,,,
,html-keyboard-response,5,55519,0.0-3.0-1.0-1.0,f078aa2862041786868ef9f2ad23336df49386eb98fe8259951830bdf7c3dbfd,5f11ab6d62b89d048d6ad245,"[31, 251, 179, 87, 213, 12, 72, 133, 171, 224, 140, 210, 16, 4, 124, 6, 156, 182, 118, 83, 252, 108, 227, 56, 22, 125, 36, 196, 135, 15, 98, 14]",5f180469d29f570181bfb241,5f11ab6d62b89d048d6ad245,5f1824a05e92c404f739afa6,0.21,JimmyJim,,,,,,,,,,,,"<div style=""width:150px;height:56px;font-size:30px;text-align:center;"">correct!</div>",,
,p5cd_probe,6,58451,0.0-3.0-1.0-0.1,f078aa2862041786868ef9f2ad23336df49386eb98fe8259951830bdf7c3dbfd,5f11ab6d62b89d048d6ad245,"[31, 251, 179, 87, 213, 12, 72, 133, 171, 224, 140, 210, 16, 4, 124, 6, 156, 182, 118, 83, 252, 108, 227, 56, 22, 125, 36, 196, 135, 15, 98, 14]",5f180469d29f570181bfb241,5f11ab6d62b89d048d6ad245,5f1824a05e92c404f739afa6,0.21,JimmyJim,,,4.0,1.0,1.0,1318.7259873375297,f,98.6240126658231,j,practice,0.0,,,
,html-keyboard-response,7,59957,0.0-3.0-1.0-1.1,f078aa2862041786868ef9f2ad23336df49386eb98fe8259951830bdf7c3dbfd,5f11ab6d62b89d048d6ad245,"[31, 251, 179, 87, 213, 12, 72, 133, 171, 224, 140, 210, 16, 4, 124, 6, 156, 182, 118, 83, 252, 108, 227, 56, 22, 125, 36, 196, 135, 15, 98, 14]",5f180469d29f570181bfb241,5f11ab6d62b89d048d6ad245,5f1824a05e92c404f739afa6,0.21,JimmyJim,,,,,,,,,,,,"<div style=""width:150px;height:56px;border:0px;font-size:30px;text-align:center"">wrong.</div>",,
,p5cd_probe,8,62702,0.0-3.0-1.0-0.2,f078aa2862041786868ef9f2ad23336df49386eb98fe8259951830bdf7c3dbfd,5f11ab6d62b89d048d6ad245,"[31, 251, 179, 87, 213, 12, 72, 133, 171, 224, 140, 210, 16, 4, 124, 6, 156, 182, 118, 83, 252, 108, 227, 56, 22, 125, 36, 196, 135, 15, 98, 14]",5f180469d29f570181bfb241,5f11ab6d62b89d048d6ad245,5f1824a05e92c404f739afa6,0.21,JimmyJim,,,4.0,0.0,0.0,1133.0480632022955,f,106.10193677712232,f,practice,1.0,,,
,html-keyboard-response,9,63709,0.0-3.0-1.0-1.2,f078aa2862041786868ef9f2ad23336df49386eb98fe8259951830bdf7c3dbfd,5f11ab6d62b89d048d6ad245,"[31, 251, 179, 87, 213, 12, 72, 133, 171, 224, 140, 210, 16, 4, 124, 6, 156, 182, 118, 83, 252, 108, 227, 56, 22, 125, 36, 196, 135, 15, 98, 14]",5f180469d29f570181bfb241,5f11ab6d62b89d048d6ad245,5f1824a05e92c404f739afa6,0.21,JimmyJim,,,,,,,,,,,,"<div style=""width:150px;height:56px;font-size:30px;text-align:center;"">correct!</div>",,
,p5cd_probe,10,66601,0.0-3.0-1.0-0.3,f078aa2862041786868ef9f2ad23336df49386eb98fe8259951830bdf7c3dbfd,5f11ab6d62b89d048d6ad245,"[31, 251, 179, 87, 213, 12, 72, 133, 171, 224, 140, 210, 16, 4, 124, 6, 156, 182, 118, 83, 252, 108, 227, 56, 22, 125, 36, 196, 135, 15, 98, 14]",5f180469d29f570181bfb241,5f11ab6d62b89d048d6ad245,5f1824a05e92c404f739afa6,0.21,JimmyJim,,,4.0,1.0,0.0,1318.6181082273833,f,69.83689172193408,j,practice,0.0,,,
,html-keyboard-response,11,68108,0.0-3.0-1.0-1.3,f078aa2862041786868ef9f2ad23336df49386eb98fe8259951830bdf7c3dbfd,5f11ab6d62b89d048d6ad245,"[31, 251, 179, 87, 213, 12, 72, 133, 171, 224, 140, 210, 16, 4, 124, 6, 156, 182, 118, 83, 252, 108, 227, 56, 22, 125, 36, 196, 135, 15, 98, 14]",5f180469d29f570181bfb241,5f11ab6d62b89d048d6ad245,5f1824a05e92c404f739afa6,0.21,JimmyJim,,,,,,,,,,,,"<div style=""width:150px;height:56px;border:0px;font-size:30px;text-align:center"">wrong.</div>",,
,p5Text,12,79310,0.0-3.1-0.1,f078aa2862041786868ef9f2ad23336df49386eb98fe8259951830bdf7c3dbfd,5f11ab6d62b89d048d6ad245,"[31, 251, 179, 87, 213, 12, 72, 133, 171, 224, 140, 210, 16, 4, 124, 6, 156, 182, 118, 83, 252, 108, 227, 56, 22, 125, 36, 196, 135, 15, 98, 14]",5f180469d29f570181bfb241,5f11ab6d62b89d048d6ad245,5f1824a05e92c404f739afa6,0.21,JimmyJim,,,,,,,,,,,,,,
,p5cd_probe,13,81993,0.0-3.1-1.1-0.4,f078aa2862041786868ef9f2ad23336df49386eb98fe8259951830bdf7c3dbfd,5f11ab6d62b89d048d6ad245,"[31, 251, 179, 87, 213, 12, 72, 133, 171, 224, 140, 210, 16, 4, 124, 6, 156, 182, 118, 83, 252, 108, 227, 56, 22, 125, 36, 196, 135, 15, 98, 14]",5f180469d29f570181bfb241,5f11ab6d62b89d048d6ad245,5f1824a05e92c404f739afa6,0.21,JimmyJim,,,4.0,1.0,1.0,942.1865360345691,f,221.05346398893744,j,practice,0.0,,,
,html-keyboard-response,14,83497,0.0-3.1-1.1-1.4,f078aa2862041786868ef9f2ad23336df49386eb98fe8259951830bdf7c3dbfd,5f11ab6d62b89d048d6ad245,"[31, 251, 179, 87, 213, 12, 72, 133, 171, 224, 140, 210, 16, 4, 124, 6, 156, 182, 118, 83, 252, 108, 227, 56, 22, 125, 36, 196, 135, 15, 98, 14]",5f180469d29f570181bfb241,5f11ab6d62b89d048d6ad245,5f1824a05e92c404f739afa6,0.21,JimmyJim,,,,,,,,,,,,"<div style=""width:150px;height:56px;border:0px;font-size:30px;text-align:center"">wrong.</div>",,
,p5cd_probe,15,86278,0.0-3.1-1.1-0.5,f078aa2862041786868ef9f2ad23336df49386eb98fe8259951830bdf7c3dbfd,5f11ab6d62b89d048d6ad245,"[31, 251, 179, 87, 213, 12, 72, 133, 171, 224, 140, 210, 16, 4, 124, 6, 156, 182, 118, 83, 252, 108, 227, 56, 22, 125, 36, 196, 135, 15, 98, 14]",5f180469d29f570181bfb241,5f11ab6d62b89d048d6ad245,5f1824a05e92c404f739afa6,0.21,JimmyJim,,,4.0,0.0,1.0,1244.5296170189977,j,20.405382965691388,f,practice,0.0,,,
,html-keyboard-response,16,87781,0.0-3.1-1.1-1.5,f078aa2862041786868ef9f2ad23336df49386eb98fe8259951830bdf7c3dbfd,5f11ab6d62b89d048d6ad245,"[31, 251, 179, 87, 213, 12, 72, 133, 171, 224, 140, 210, 16, 4, 124, 6, 156, 182, 118, 83, 252, 108, 227, 56, 22, 125, 36, 196, 135, 15, 98, 14]",5f180469d29f570181bfb241,5f11ab6d62b89d048d6ad245,5f1824a05e92c404f739afa6,0.21,JimmyJim,,,,,,,,,,,,"<div style=""width:150px;height:56px;border:0px;font-size:30px;text-align:center"">wrong.</div>",,
,p5cd_probe,17,90513,0.0-3.1-1.1-0.6,f078aa2862041786868ef9f2ad23336df49386eb98fe8259951830bdf7c3dbfd,5f11ab6d62b89d048d6ad245,"[31, 251, 179, 87, 213, 12, 72, 133, 171, 224, 140, 210, 16, 4, 124, 6, 156, 182, 118, 83, 252, 108, 227, 56, 22, 125, 36, 196, 135, 15, 98, 14]",5f180469d29f570181bfb241,5f11ab6d62b89d048d6ad245,5f1824a05e92c404f739afa6,0.21,JimmyJim,,,4.0,0.0,0.0,1054.5412815990858,f,172.10371838882565,f,practice,1.0,,,
,html-keyboard-response,18,91518,0.0-3.1-1.1-1.6,f078aa2862041786868ef9f2ad23336df49386eb98fe8259951830bdf7c3dbfd,5f11ab6d62b89d048d6ad245,"[31, 251, 179, 87, 213, 12, 72, 133, 171, 224, 140, 210, 16, 4, 124, 6, 156, 182, 118, 83, 252, 108, 227, 56, 22, 125, 36, 196, 135, 15, 98, 14]",5f180469d29f570181bfb241,5f11ab6d62b89d048d6ad245,5f1824a05e92c404f739afa6,0.21,JimmyJim,,,,,,,,,,,,"<div style=""width:150px;height:56px;font-size:30px;text-align:center;"">correct!</div>",,
,p5cd_probe,19,94079,0.0-3.1-1.1-0.7,f078aa2862041786868ef9f2ad23336df49386eb98fe8259951830bdf7c3dbfd,5f11ab6d62b89d048d6ad245,"[31, 251, 179, 87, 213, 12, 72, 133, 171, 224, 140, 210, 16, 4, 124, 6, 156, 182, 118, 83, 252, 108, 227, 56, 22, 125, 36, 196, 135, 15, 98, 14]",5f180469d29f570181bfb241,5f11ab6d62b89d048d6ad245,5f1824a05e92c404f739afa6,0.21,JimmyJim,,,4.0,1.0,0.0,862.8096981556155,f,186.22530181892216,j,practice,0.0,,,
,html-keyboard-response,20,95583,0.0-3.1-1.1-1.7,f078aa2862041786868ef9f2ad23336df49386eb98fe8259951830bdf7c3dbfd,5f11ab6d62b89d048d6ad245,"[31, 251, 179, 87, 213, 12, 72, 133, 171, 224, 140, 210, 16, 4, 124, 6, 156, 182, 118, 83, 252, 108, 227, 56, 22, 125, 36, 196, 135, 15, 98, 14]",5f180469d29f570181bfb241,5f11ab6d62b89d048d6ad245,5f1824a05e92c404f739afa6,0.21,JimmyJim,,,,,,,,,,,,"<div style=""width:150px;height:56px;border:0px;font-size:30px;text-align:center"">wrong.</div>",,
,p5Text,21,96742,0.0-3.2-0.2,f078aa2862041786868ef9f2ad23336df49386eb98fe8259951830bdf7c3dbfd,5f11ab6d62b89d048d6ad245,"[31, 251, 179, 87, 213, 12, 72, 133, 171, 224, 140, 210, 16, 4, 124, 6, 156, 182, 118, 83, 252, 108, 227, 56, 22, 125, 36, 196, 135, 15, 98, 14]",5f180469d29f570181bfb241,5f11ab6d62b89d048d6ad245,5f1824a05e92c404f739afa6,0.21,JimmyJim,,,,,,,,,,,,,,
,p5cd_probe,22,99716,0.0-3.2-1.2-0.8,f078aa2862041786868ef9f2ad23336df49386eb98fe8259951830bdf7c3dbfd,5f11ab6d62b89d048d6ad245,"[31, 251, 179, 87, 213, 12, 72, 133, 171, 224, 140, 210, 16, 4, 124, 6, 156, 182, 118, 83, 252, 108, 227, 56, 22, 125, 36, 196, 135, 15, 98, 14]",5f180469d29f570181bfb241,5f11ab6d62b89d048d6ad245,5f1824a05e92c404f739afa6,0.21,JimmyJim,,,4.0,1.0,1.0,1082.8216923982836,f,384.518307633698,j,practice,0.0,,,
,html-keyboard-response,23,101218,0.0-3.2-1.2-1.8,f078aa2862041786868ef9f2ad23336df49386eb98fe8259951830bdf7c3dbfd,5f11ab6d62b89d048d6ad245,"[31, 251, 179, 87, 213, 12, 72, 133, 171, 224, 140, 210, 16, 4, 124, 6, 156, 182, 118, 83, 252, 108, 227, 56, 22, 125, 36, 196, 135, 15, 98, 14]",5f180469d29f570181bfb241,5f11ab6d62b89d048d6ad245,5f1824a05e92c404f739afa6,0.21,JimmyJim,,,,,,,,,,,,"<div style=""width:150px;height:56px;border:0px;font-size:30px;text-align:center"">wrong.</div>",,
,p5cd_probe,24,103719,0.0-3.2-1.2-0.9,f078aa2862041786868ef9f2ad23336df49386eb98fe8259951830bdf7c3dbfd,5f11ab6d62b89d048d6ad245,"[31, 251, 179, 87, 213, 12, 72, 133, 171, 224, 140, 210, 16, 4, 124, 6, 156, 182, 118, 83, 252, 108, 227, 56, 22, 125, 36, 196, 135, 15, 98, 14]",5f180469d29f570181bfb241,5f11ab6d62b89d048d6ad245,5f1824a05e92c404f739afa6,0.21,JimmyJim,,,4.0,0.0,0.0,853.2161756884307,f,128.98882431909442,f,practice,1.0,,,
,html-keyboard-response,25,104726,0.0-3.2-1.2-1.9,f078aa2862041786868ef9f2ad23336df49386eb98fe8259951830bdf7c3dbfd,5f11ab6d62b89d048d6ad245,"[31, 251, 179, 87, 213, 12, 72, 133, 171, 224, 140, 210, 16, 4, 124, 6, 156, 182, 118, 83, 252, 108, 227, 56, 22, 125, 36, 196, 135, 15, 98, 14]",5f180469d29f570181bfb241,5f11ab6d62b89d048d6ad245,5f1824a05e92c404f739afa6,0.21,JimmyJim,,,,,,,,,,,,"<div style=""width:150px;height:56px;font-size:30px;text-align:center;"">correct!</div>",,
,p5cd_probe,26,107252,0.0-3.2-1.2-0.10,f078aa2862041786868ef9f2ad23336df49386eb98fe8259951830bdf7c3dbfd,5f11ab6d62b89d048d6ad245,"[31, 251, 179, 87, 213, 12, 72, 133, 171, 224, 140, 210, 16, 4, 124, 6, 156, 182, 118, 83, 252, 108, 227, 56, 22, 125, 36, 196, 135, 15, 98, 14]",5f180469d29f570181bfb241,5f11ab6d62b89d048d6ad245,5f1824a05e92c404f739afa6,0.21,JimmyJim,,,4.0,1.0,0.0,933.4730742266402,j,79.29692580364645,j,practice,1.0,,,
,html-keyboard-response,27,108255,0.0-3.2-1.2-1.10,f078aa2862041786868ef9f2ad23336df49386eb98fe8259951830bdf7c3dbfd,5f11ab6d62b89d048d6ad245,"[31, 251, 179, 87, 213, 12, 72, 133, 171, 224, 140, 210, 16, 4, 124, 6, 156, 182, 118, 83, 252, 108, 227, 56, 22, 125, 36, 196, 135, 15, 98, 14]",5f180469d29f570181bfb241,5f11ab6d62b89d048d6ad245,5f1824a05e92c404f739afa6,0.21,JimmyJim,,,,,,,,,,,,"<div style=""width:150px;height:56px;font-size:30px;text-align:center;"">correct!</div>",,
,p5cd_probe,28,111071,0.0-3.2-1.2-0.11,f078aa2862041786868ef9f2ad23336df49386eb98fe8259951830bdf7c3dbfd,5f11ab6d62b89d048d6ad245,"[31, 251, 179, 87, 213, 12, 72, 133, 171, 224, 140, 210, 16, 4, 124, 6, 156, 182, 118, 83, 252, 108, 227, 56, 22, 125, 36, 196, 135, 15, 98, 14]",5f180469d29f570181bfb241,5f11ab6d62b89d048d6ad245,5f1824a05e92c404f739afa6,0.21,JimmyJim,,,4.0,0.0,1.0,933.9232516358607,f,365.68674840964377,f,practice,1.0,,,
,html-keyboard-response,29,112073,0.0-3.2-1.2-1.11,f078aa2862041786868ef9f2ad23336df49386eb98fe8259951830bdf7c3dbfd,5f11ab6d62b89d048d6ad245,"[31, 251, 179, 87, 213, 12, 72, 133, 171, 224, 140, 210, 16, 4, 124, 6, 156, 182, 118, 83, 252, 108, 227, 56, 22, 125, 36, 196, 135, 15, 98, 14]",5f180469d29f570181bfb241,5f11ab6d62b89d048d6ad245,5f1824a05e92c404f739afa6,0.21,JimmyJim,,,,,,,,,,,,"<div style=""width:150px;height:56px;font-size:30px;text-align:center;"">correct!</div>",,
,p5Text,30,120889,0.0-4.0,f078aa2862041786868ef9f2ad23336df49386eb98fe8259951830bdf7c3dbfd,5f11ab6d62b89d048d6ad245,"[31, 251, 179, 87, 213, 12, 72, 133, 171, 224, 140, 210, 16, 4, 124, 6, 156, 182, 118, 83, 252, 108, 227, 56, 22, 125, 36, 196, 135, 15, 98, 14]",5f180469d29f570181bfb241,5f11ab6d62b89d048d6ad245,5f1824a05e92c404f739afa6,0.21,JimmyJim,,,,,,,,,,,,,,
,p5Text,31,139168,0.0-5.0,f078aa2862041786868ef9f2ad23336df49386eb98fe8259951830bdf7c3dbfd,5f11ab6d62b89d048d6ad245,"[31, 251, 179, 87, 213, 12, 72, 133, 171, 224, 140, 210, 16, 4, 124, 6, 156, 182, 118, 83, 252, 108, 227, 56, 22, 125, 36, 196, 135, 15, 98, 14]",5f180469d29f570181bfb241,5f11ab6d62b89d048d6ad245,5f1824a05e92c404f739afa6,0.21,JimmyJim,,,,,,,,,,,,,,
,p5Text,32,144154,0.0-6.0-0.0,f078aa2862041786868ef9f2ad23336df49386eb98fe8259951830bdf7c3dbfd,5f11ab6d62b89d048d6ad245,"[31, 251, 179, 87, 213, 12, 72, 133, 171, 224, 140, 210, 16, 4, 124, 6, 156, 182, 118, 83, 252, 108, 227, 56, 22, 125, 36, 196, 135, 15, 98, 14]",5f180469d29f570181bfb241,5f11ab6d62b89d048d6ad245,5f1824a05e92c404f739afa6,0.21,JimmyJim,,,,,,,,,,,,,,
,p5cd_probe,33,146717,0.0-6.0-1.0-0.0,f078aa2862041786868ef9f2ad23336df49386eb98fe8259951830bdf7c3dbfd,5f11ab6d62b89d048d6ad245,"[31, 251, 179, 87, 213, 12, 72, 133, 171, 224, 140, 210, 16, 4, 124, 6, 156, 182, 118, 83, 252, 108, 227, 56, 22, 125, 36, 196, 135, 15, 98, 14]",5f180469d29f570181bfb241,5f11ab6d62b89d048d6ad245,5f1824a05e92c404f739afa6,0.21,JimmyJim,,,6.0,1.0,0.0,968.4174731606618,f,425.15252681914717,j,test,0.0,,,
,p5cd_probe,34,149268,0.0-6.0-1.0-0.1,f078aa2862041786868ef9f2ad23336df49386eb98fe8259951830bdf7c3dbfd,5f11ab6d62b89d048d6ad245,"[31, 251, 179, 87, 213, 12, 72, 133, 171, 224, 140, 210, 16, 4, 124, 6, 156, 182, 118, 83, 252, 108, 227, 56, 22, 125, 36, 196, 135, 15, 98, 14]",5f180469d29f570181bfb241,5f11ab6d62b89d048d6ad245,5f1824a05e92c404f739afa6,0.21,JimmyJim,,,4.0,0.0,0.0,1063.8842793065123,j,322.27572065312415,f,test,0.0,,,
,p5cd_probe,35,151552,0.0-6.0-1.0-0.2,f078aa2862041786868ef9f2ad23336df49386eb98fe8259951830bdf7c3dbfd,5f11ab6d62b89d048d6ad245,"[31, 251, 179, 87, 213, 12, 72, 133, 171, 224, 140, 210, 16, 4, 124, 6, 156, 182, 118, 83, 252, 108, 227, 56, 22, 125, 36, 196, 135, 15, 98, 14]",5f180469d29f570181bfb241,5f11ab6d62b89d048d6ad245,5f1824a05e92c404f739afa6,0.21,JimmyJim,,,4.0,1.0,1.0,1101.598789007403,j,26.92121104337275,j,test,1.0,,,
,p5cd_probe,36,153970,0.0-6.0-1.0-0.3,f078aa2862041786868ef9f2ad23336df49386eb98fe8259951830bdf7c3dbfd,5f11ab6d62b89d048d6ad245,"[31, 251, 179, 87, 213, 12, 72, 133, 171, 224, 140, 210, 16, 4, 124, 6, 156, 182, 118, 83, 252, 108, 227, 56, 22, 125, 36, 196, 135, 15, 98, 14]",5f180469d29f570181bfb241,5f11ab6d62b89d048d6ad245,5f1824a05e92c404f739afa6,0.21,JimmyJim,,,8.0,1.0,0.0,829.4981018058024,f,435.1718982215971,j,test,0.0,,,
,p5cd_probe,37,156805,0.0-6.0-1.0-0.4,f078aa2862041786868ef9f2ad23336df49386eb98fe8259951830bdf7c3dbfd,5f11ab6d62b89d048d6ad245,"[31, 251, 179, 87, 213, 12, 72, 133, 171, 224, 140, 210, 16, 4, 124, 6, 156, 182, 118, 83, 252, 108, 227, 56, 22, 125, 36, 196, 135, 15, 98, 14]",5f180469d29f570181bfb241,5f11ab6d62b89d048d6ad245,5f1824a05e92c404f739afa6,0.21,JimmyJim,,,2.0,1.0,0.0,1306.9365250645205,j,367.30347492266446,j,test,1.0,,,
,p5cd_probe,38,158755,0.0-6.0-1.0-0.5,f078aa2862041786868ef9f2ad23336df49386eb98fe8259951830bdf7c3dbfd,5f11ab6d62b89d048d6ad245,"[31, 251, 179, 87, 213, 12, 72, 133, 171, 224, 140, 210, 16, 4, 124, 6, 156, 182, 118, 83, 252, 108, 227, 56, 22, 125, 36, 196, 135, 15, 98, 14]",5f180469d29f570181bfb241,5f11ab6d62b89d048d6ad245,5f1824a05e92c404f739afa6,0.21,JimmyJim,,,2.0,0.0,1.0,743.5408832621761,f,41.969116777181625,f,test,1.0,,,
,p5cd_probe,39,161107,0.0-6.0-1.0-0.6,f078aa2862041786868ef9f2ad23336df49386eb98fe8259951830bdf7c3dbfd,5f11ab6d62b89d048d6ad245,"[31, 251, 179, 87, 213, 12, 72, 133, 171, 224, 140, 210, 16, 4, 124, 6, 156, 182, 118, 83, 252, 108, 227, 56, 22, 125, 36, 196, 135, 15, 98, 14]",5f180469d29f570181bfb241,5f11ab6d62b89d048d6ad245,5f1824a05e92c404f739afa6,0.21,JimmyJim,,,4.0,0.0,1.0,776.0060535161756,f,411.8939464678988,f,test,1.0,,,
,p5cd_probe,40,163340,0.0-6.0-1.0-0.7,f078aa2862041786868ef9f2ad23336df49386eb98fe8259951830bdf7c3dbfd,5f11ab6d62b89d048d6ad245,"[31, 251, 179, 87, 213, 12, 72, 133, 171, 224, 140, 210, 16, 4, 124, 6, 156, 182, 118, 83, 252, 108, 227, 56, 22, 125, 36, 196, 135, 15, 98, 14]",5f180469d29f570181bfb241,5f11ab6d62b89d048d6ad245,5f1824a05e92c404f739afa6,0.21,JimmyJim,,,6.0,0.0,0.0,779.9988279235549,j,288.0561720812693,f,test,0.0,,,
,p5cd_probe,41,166092,0.0-6.0-1.0-0.8,f078aa2862041786868ef9f2ad23336df49386eb98fe8259951830bdf7c3dbfd,5f11ab6d62b89d048d6ad245,"[31, 251, 179, 87, 213, 12, 72, 133, 171, 224, 140, 210, 16, 4, 124, 6, 156, 182, 118, 83, 252, 108, 227, 56, 22, 125, 36, 196, 135, 15, 98, 14]",5f180469d29f570181bfb241,5f11ab6d62b89d048d6ad245,5f1824a05e92c404f739afa6,0.21,JimmyJim,,,4.0,1.0,0.0,1213.3192662382498,j,371.79073377046734,j,test,1.0,,,
,p5cd_probe,42,168408,0.0-6.0-1.0-0.9,f078aa2862041786868ef9f2ad23336df49386eb98fe8259951830bdf7c3dbfd,5f11ab6d62b89d048d6ad245,"[31, 251, 179, 87, 213, 12, 72, 133, 171, 224, 140, 210, 16, 4, 124, 6, 156, 182, 118, 83, 252, 108, 227, 56, 22, 125, 36, 196, 135, 15, 98, 14]",5f180469d29f570181bfb241,5f11ab6d62b89d048d6ad245,5f1824a05e92c404f739afa6,0.21,JimmyJim,,,2.0,0.0,0.0,733.0825141631067,f,419.03748584445566,f,test,1.0,,,
,p5cd_probe,43,170794,0.0-6.0-1.0-0.10,f078aa2862041786868ef9f2ad23336df49386eb98fe8259951830bdf7c3dbfd,5f11ab6d62b89d048d6ad245,"[31, 251, 179, 87, 213, 12, 72, 133, 171, 224, 140, 210, 16, 4, 124, 6, 156, 182, 118, 83, 252, 108, 227, 56, 22, 125, 36, 196, 135, 15, 98, 14]",5f180469d29f570181bfb241,5f11ab6d62b89d048d6ad245,5f1824a05e92c404f739afa6,0.21,JimmyJim,,,6.0,0.0,1.0,1033.8354649953544,j,192.939535016194,f,test,0.0,,,
,p5cd_probe,44,173295,0.0-6.0-1.0-0.11,f078aa2862041786868ef9f2ad23336df49386eb98fe8259951830bdf7c3dbfd,5f11ab6d62b89d048d6ad245,"[31, 251, 179, 87, 213, 12, 72, 133, 171, 224, 140, 210, 16, 4, 124, 6, 156, 182, 118, 83, 252, 108, 227, 56, 22, 125, 36, 196, 135, 15, 98, 14]",5f180469d29f570181bfb241,5f11ab6d62b89d048d6ad245,5f1824a05e92c404f739afa6,0.21,JimmyJim,,,8.0,0.0,0.0,1010.0474951555952,j,326.5475048683584,f,test,0.0,,,
,p5cd_probe,45,175578,0.0-6.0-1.0-0.12,f078aa2862041786868ef9f2ad23336df49386eb98fe8259951830bdf7c3dbfd,5f11ab6d62b89d048d6ad245,"[31, 251, 179, 87, 213, 12, 72, 133, 171, 224, 140, 210, 16, 4, 124, 6, 156, 182, 118, 83, 252, 108, 227, 56, 22, 125, 36, 196, 135, 15, 98, 14]",5f180469d29f570181bfb241,5f11ab6d62b89d048d6ad245,5f1824a05e92c404f739afa6,0.21,JimmyJim,,,8.0,1.0,1.0,918.9157653832808,f,208.4492346039042,j,test,0.0,,,
,p5cd_probe,46,178347,0.0-6.0-1.0-0.13,f078aa2862041786868ef9f2ad23336df49386eb98fe8259951830bdf7c3dbfd,5f11ab6d62b89d048d6ad245,"[31, 251, 179, 87, 213, 12, 72, 133, 171, 224, 140, 210, 16, 4, 124, 6, 156, 182, 118, 83, 252, 108, 227, 56, 22, 125, 36, 196, 135, 15, 98, 14]",5f180469d29f570181bfb241,5f11ab6d62b89d048d6ad245,5f1824a05e92c404f739afa6,0.21,JimmyJim,,,6.0,1.0,1.0,1118.5368605307303,j,493.8531394582242,j,test,1.0,,,
,p5cd_probe,47,180546,0.0-6.0-1.0-0.14,f078aa2862041786868ef9f2ad23336df49386eb98fe8259951830bdf7c3dbfd,5f11ab6d62b89d048d6ad245,"[31, 251, 179, 87, 213, 12, 72, 133, 171, 224, 140, 210, 16, 4, 124, 6, 156, 182, 118, 83, 252, 108, 227, 56, 22, 125, 36, 196, 135, 15, 98, 14]",5f180469d29f570181bfb241,5f11ab6d62b89d048d6ad245,5f1824a05e92c404f739afa6,0.21,JimmyJim,,,8.0,0.0,1.0,770.124571362976,f,275.39542864542454,f,test,1.0,,,
,p5cd_probe,48,182981,0.0-6.0-1.0-0.15,f078aa2862041786868ef9f2ad23336df49386eb98fe8259951830bdf7c3dbfd,5f11ab6d62b89d048d6ad245,"[31, 251, 179, 87, 213, 12, 72, 133, 171, 224, 140, 210, 16, 4, 124, 6, 156, 182, 118, 83, 252, 108, 227, 56, 22, 125, 36, 196, 135, 15, 98, 14]",5f180469d29f570181bfb241,5f11ab6d62b89d048d6ad245,5f1824a05e92c404f739afa6,0.21,JimmyJim,,,2.0,1.0,1.0,1049.242795468308,j,231.6372045315802,j,test,1.0,,,
,p5Text,49,197878,0.0-6.0-2.0,f078aa2862041786868ef9f2ad23336df49386eb98fe8259951830bdf7c3dbfd,5f11ab6d62b89d048d6ad245,"[31, 251, 179, 87, 213, 12, 72, 133, 171, 224, 140, 210, 16, 4, 124, 6, 156, 182, 118, 83, 252, 108, 227, 56, 22, 125, 36, 196, 135, 15, 98, 14]",5f180469d29f570181bfb241,5f11ab6d62b89d048d6ad245,5f1824a05e92c404f739afa6,0.21,JimmyJim,,,,,,,,,,,,,,
,p5Text,50,200526,0.0-6.0-0.1,f078aa2862041786868ef9f2ad23336df49386eb98fe8259951830bdf7c3dbfd,5f11ab6d62b89d048d6ad245,"[31, 251, 179, 87, 213, 12, 72, 133, 171, 224, 140, 210, 16, 4, 124, 6, 156, 182, 118, 83, 252, 108, 227, 56, 22, 125, 36, 196, 135, 15, 98, 14]",5f180469d29f570181bfb241,5f11ab6d62b89d048d6ad245,5f1824a05e92c404f739afa6,0.21,JimmyJim,,,,,,,,,,,,,,
,p5cd_probe,51,202673,0.0-6.0-1.1-0.16,f078aa2862041786868ef9f2ad23336df49386eb98fe8259951830bdf7c3dbfd,5f11ab6d62b89d048d6ad245,"[31, 251, 179, 87, 213, 12, 72, 133, 171, 224, 140, 210, 16, 4, 124, 6, 156, 182, 118, 83, 252, 108, 227, 56, 22, 125, 36, 196, 135, 15, 98, 14]",5f180469d29f570181bfb241,5f11ab6d62b89d048d6ad245,5f1824a05e92c404f739afa6,0.21,JimmyJim,,,8.0,0.0,1.0,825.5211281008087,j,161.28887189552188,f,test,0.0,,,
,p5cd_probe,52,204840,0.0-6.0-1.1-0.17,f078aa2862041786868ef9f2ad23336df49386eb98fe8259951830bdf7c3dbfd,5f11ab6d62b89d048d6ad245,"[31, 251, 179, 87, 213, 12, 72, 133, 171, 224, 140, 210, 16, 4, 124, 6, 156, 182, 118, 83, 252, 108, 227, 56, 22, 125, 36, 196, 135, 15, 98, 14]",5f180469d29f570181bfb241,5f11ab6d62b89d048d6ad245,5f1824a05e92c404f739afa6,0.21,JimmyJim,,,4.0,0.0,0.0,731.7698382190429,j,269.93016176857054,f,test,0.0,,,
,p5cd_probe,53,207040,0.0-6.0-1.1-0.18,f078aa2862041786868ef9f2ad23336df49386eb98fe8259951830bdf7c3dbfd,5f11ab6d62b89d048d6ad245,"[31, 251, 179, 87, 213, 12, 72, 133, 171, 224, 140, 210, 16, 4, 124, 6, 156, 182, 118, 83, 252, 108, 227, 56, 22, 125, 36, 196, 135, 15, 98, 14]",5f180469d29f570181bfb241,5f11ab6d62b89d048d6ad245,5f1824a05e92c404f739afa6,0.21,JimmyJim,,,4.0,0.0,1.0,754.8020535847172,f,284.6429464407265,f,test,1.0,,,
,p5cd_probe,54,209076,0.0-6.0-1.1-0.19,f078aa2862041786868ef9f2ad23336df49386eb98fe8259951830bdf7c3dbfd,5f11ab6d62b89d048d6ad245,"[31, 251, 179, 87, 213, 12, 72, 133, 171, 224, 140, 210, 16, 4, 124, 6, 156, 182, 118, 83, 252, 108, 227, 56, 22, 125, 36, 196, 135, 15, 98, 14]",5f180469d29f570181bfb241,5f11ab6d62b89d048d6ad245,5f1824a05e92c404f739afa6,0.21,JimmyJim,,,2.0,0.0,0.0,626.8837715848349,f,255.15622843522578,f,test,1.0,,,
,p5cd_probe,55,211325,0.0-6.0-1.1-0.20,f078aa2862041786868ef9f2ad23336df49386eb98fe8259951830bdf7c3dbfd,5f11ab6d62b89d048d6ad245,"[31, 251, 179, 87, 213, 12, 72, 133, 171, 224, 140, 210, 16, 4, 124, 6, 156, 182, 118, 83, 252, 108, 227, 56, 22, 125, 36, 196, 135, 15, 98, 14]",5f180469d29f570181bfb241,5f11ab6d62b89d048d6ad245,5f1824a05e92c404f739afa6,0.21,JimmyJim,,,2.0,1.0,1.0,768.9068820560351,j,326.6881179297343,j,test,1.0,,,
,p5cd_probe,56,213677,0.0-6.0-1.1-0.21,f078aa2862041786868ef9f2ad23336df49386eb98fe8259951830bdf7c3dbfd,5f11ab6d62b89d048d6ad245,"[31, 251, 179, 87, 213, 12, 72, 133, 171, 224, 140, 210, 16, 4, 124, 6, 156, 182, 118, 83, 252, 108, 227, 56, 22, 125, 36, 196, 135, 15, 98, 14]",5f180469d29f570181bfb241,5f11ab6d62b89d048d6ad245,5f1824a05e92c404f739afa6,0.21,JimmyJim,,,6.0,1.0,0.0,885.5345948482864,j,303.51540516130626,j,test,1.0,,,
,p5cd_probe,57,215678,0.0-6.0-1.1-0.22,f078aa2862041786868ef9f2ad23336df49386eb98fe8259951830bdf7c3dbfd,5f11ab6d62b89d048d6ad245,"[31, 251, 179, 87, 213, 12, 72, 133, 171, 224, 140, 210, 16, 4, 124, 6, 156, 182, 118, 83, 252, 108, 227, 56, 22, 125, 36, 196, 135, 15, 98, 14]",5f180469d29f570181bfb241,5f11ab6d62b89d048d6ad245,5f1824a05e92c404f739afa6,0.21,JimmyJim,,,6.0,1.0,1.0,654.109757184051,f,180.6052428437397,j,test,0.0,,,
,p5cd_probe,58,217928,0.0-6.0-1.1-0.23,f078aa2862041786868ef9f2ad23336df49386eb98fe8259951830bdf7c3dbfd,5f11ab6d62b89d048d6ad245,"[31, 251, 179, 87, 213, 12, 72, 133, 171, 224, 140, 210, 16, 4, 124, 6, 156, 182, 118, 83, 252, 108, 227, 56, 22, 125, 36, 196, 135, 15, 98, 14]",5f180469d29f570181bfb241,5f11ab6d62b89d048d6ad245,5f1824a05e92c404f739afa6,0.21,JimmyJim,,,8.0,1.0,1.0,783.9917657780461,j,303.29823424108326,j,test,1.0,,,
,p5cd_probe,59,220279,0.0-6.0-1.1-0.24,f078aa2862041786868ef9f2ad23336df49386eb98fe8259951830bdf7c3dbfd,5f11ab6d62b89d048d6ad245,"[31, 251, 179, 87, 213, 12, 72, 133, 171, 224, 140, 210, 16, 4, 124, 6, 156, 182, 118, 83, 252, 108, 227, 56, 22, 125, 36, 196, 135, 15, 98, 14]",5f180469d29f570181bfb241,5f11ab6d62b89d048d6ad245,5f1824a05e92c404f739afa6,0.21,JimmyJim,,,2.0,0.0,1.0,885.8859760453925,f,303.4790239762515,f,test,1.0,,,
,p5cd_probe,60,222630,0.0-6.0-1.1-0.25,f078aa2862041786868ef9f2ad23336df49386eb98fe8259951830bdf7c3dbfd,5f11ab6d62b89d048d6ad245,"[31, 251, 179, 87, 213, 12, 72, 133, 171, 224, 140, 210, 16, 4, 124, 6, 156, 182, 118, 83, 252, 108, 227, 56, 22, 125, 36, 196, 135, 15, 98, 14]",5f180469d29f570181bfb241,5f11ab6d62b89d048d6ad245,5f1824a05e92c404f739afa6,0.21,JimmyJim,,,2.0,1.0,0.0,706.193324259948,j,490.51167571451515,j,test,1.0,,,
,p5cd_probe,61,224798,0.0-6.0-1.1-0.26,f078aa2862041786868ef9f2ad23336df49386eb98fe8259951830bdf7c3dbfd,5f11ab6d62b89d048d6ad245,"[31, 251, 179, 87, 213, 12, 72, 133, 171, 224, 140, 210, 16, 4, 124, 6, 156, 182, 118, 83, 252, 108, 227, 56, 22, 125, 36, 196, 135, 15, 98, 14]",5f180469d29f570181bfb241,5f11ab6d62b89d048d6ad245,5f1824a05e92c404f739afa6,0.21,JimmyJim,,,4.0,1.0,1.0,898.2850677799433,j,109.00493222288787,j,test,1.0,,,
,p5cd_probe,62,226816,0.0-6.0-1.1-0.27,f078aa2862041786868ef9f2ad23336df49386eb98fe8259951830bdf7c3dbfd,5f11ab6d62b89d048d6ad245,"[31, 251, 179, 87, 213, 12, 72, 133, 171, 224, 140, 210, 16, 4, 124, 6, 156, 182, 118, 83, 252, 108, 227, 56, 22, 125, 36, 196, 135, 15, 98, 14]",5f180469d29f570181bfb241,5f11ab6d62b89d048d6ad245,5f1824a05e92c404f739afa6,0.21,JimmyJim,,,6.0,0.0,1.0,708.6653028032742,f,145.39969724137336,f,test,1.0,,,
,p5cd_probe,63,229534,0.0-6.0-1.1-0.28,f078aa2862041786868ef9f2ad23336df49386eb98fe8259951830bdf7c3dbfd,5f11ab6d62b89d048d6ad245,"[31, 251, 179, 87, 213, 12, 72, 133, 171, 224, 140, 210, 16, 4, 124, 6, 156, 182, 118, 83, 252, 108, 227, 56, 22, 125, 36, 196, 135, 15, 98, 14]",5f180469d29f570181bfb241,5f11ab6d62b89d048d6ad245,5f1824a05e92c404f739afa6,0.21,JimmyJim,,,4.0,1.0,0.0,1532.112802285701,f,22.81719772145152,j,test,0.0,,,
,p5cd_probe,64,232251,0.0-6.0-1.1-0.29,f078aa2862041786868ef9f2ad23336df49386eb98fe8259951830bdf7c3dbfd,5f11ab6d62b89d048d6ad245,"[31, 251, 179, 87, 213, 12, 72, 133, 171, 224, 140, 210, 16, 4, 124, 6, 156, 182, 118, 83, 252, 108, 227, 56, 22, 125, 36, 196, 135, 15, 98, 14]",5f180469d29f570181bfb241,5f11ab6d62b89d048d6ad245,5f1824a05e92c404f739afa6,0.21,JimmyJim,,,8.0,1.0,0.0,1226.6373523976654,f,326.58264762721956,j,test,0.0,,,
,p5cd_probe,65,234351,0.0-6.0-1.1-0.30,f078aa2862041786868ef9f2ad23336df49386eb98fe8259951830bdf7c3dbfd,5f11ab6d62b89d048d6ad245,"[31, 251, 179, 87, 213, 12, 72, 133, 171, 224, 140, 210, 16, 4, 124, 6, 156, 182, 118, 83, 252, 108, 227, 56, 22, 125, 36, 196, 135, 15, 98, 14]",5f180469d29f570181bfb241,5f11ab6d62b89d048d6ad245,5f1824a05e92c404f739afa6,0.21,JimmyJim,,,8.0,0.0,0.0,728.0925584724173,j,207.20244152471423,f,test,0.0,,,
,p5cd_probe,66,236687,0.0-6.0-1.1-0.31,f078aa2862041786868ef9f2ad23336df49386eb98fe8259951830bdf7c3dbfd,5f11ab6d62b89d048d6ad245,"[31, 251, 179, 87, 213, 12, 72, 133, 171, 224, 140, 210, 16, 4, 124, 6, 156, 182, 118, 83, 252, 108, 227, 56, 22, 125, 36, 196, 135, 15, 98, 14]",5f180469d29f570181bfb241,5f11ab6d62b89d048d6ad245,5f1824a05e92c404f739afa6,0.21,JimmyJim,,,6.0,0.0,0.0,807.5157079380006,j,362.88929206784815,f,test,0.0,,,
,p5Text,67,243363,0.0-6.0-2.1,f078aa2862041786868ef9f2ad23336df49386eb98fe8259951830bdf7c3dbfd,5f11ab6d62b89d048d6ad245,"[31, 251, 179, 87, 213, 12, 72, 133, 171, 224, 140, 210, 16, 4, 124, 6, 156, 182, 118, 83, 252, 108, 227, 56, 22, 125, 36, 196, 135, 15, 98, 14]",5f180469d29f570181bfb241,5f11ab6d62b89d048d6ad245,5f1824a05e92c404f739afa6,0.21,JimmyJim,,,,,,,,,,,,,,
,p5Text,68,247971,0.0-6.0-0.2,f078aa2862041786868ef9f2ad23336df49386eb98fe8259951830bdf7c3dbfd,5f11ab6d62b89d048d6ad245,"[31, 251, 179, 87, 213, 12, 72, 133, 171, 224, 140, 210, 16, 4, 124, 6, 156, 182, 118, 83, 252, 108, 227, 56, 22, 125, 36, 196, 135, 15, 98, 14]",5f180469d29f570181bfb241,5f11ab6d62b89d048d6ad245,5f1824a05e92c404f739afa6,0.21,JimmyJim,,,,,,,,,,,,,,
,p5cd_probe,69,250441,0.0-6.0-1.2-0.32,f078aa2862041786868ef9f2ad23336df49386eb98fe8259951830bdf7c3dbfd,5f11ab6d62b89d048d6ad245,"[31, 251, 179, 87, 213, 12, 72, 133, 171, 224, 140, 210, 16, 4, 124, 6, 156, 182, 118, 83, 252, 108, 227, 56, 22, 125, 36, 196, 135, 15, 98, 14]",5f180469d29f570181bfb241,5f11ab6d62b89d048d6ad245,5f1824a05e92c404f739afa6,0.21,JimmyJim,,,6.0,0.0,1.0,1092.0228029368445,j,218.5321970609948,f,test,0.0,,,
,p5cd_probe,70,252792,0.0-6.0-1.2-0.33,f078aa2862041786868ef9f2ad23336df49386eb98fe8259951830bdf7c3dbfd,5f11ab6d62b89d048d6ad245,"[31, 251, 179, 87, 213, 12, 72, 133, 171, 224, 140, 210, 16, 4, 124, 6, 156, 182, 118, 83, 252, 108, 227, 56, 22, 125, 36, 196, 135, 15, 98, 14]",5f180469d29f570181bfb241,5f11ab6d62b89d048d6ad245,5f1824a05e92c404f739afa6,0.21,JimmyJim,,,4.0,1.0,0.0,871.1623997893184,f,316.13260018639266,j,test,0.0,,,
,p5cd_probe,71,254743,0.0-6.0-1.2-0.34,f078aa2862041786868ef9f2ad23336df49386eb98fe8259951830bdf7c3dbfd,5f11ab6d62b89d048d6ad245,"[31, 251, 179, 87, 213, 12, 72, 133, 171, 224, 140, 210, 16, 4, 124, 6, 156, 182, 118, 83, 252, 108, 227, 56, 22, 125, 36, 196, 135, 15, 98, 14]",5f180469d29f570181bfb241,5f11ab6d62b89d048d6ad245,5f1824a05e92c404f739afa6,0.21,JimmyJim,,,4.0,0.0,0.0,669.5148135419004,j,124.29018644616008,f,test,0.0,,,
,p5cd_probe,72,256778,0.0-6.0-1.2-0.35,f078aa2862041786868ef9f2ad23336df49386eb98fe8259951830bdf7c3dbfd,5f11ab6d62b89d048d6ad245,"[31, 251, 179, 87, 213, 12, 72, 133, 171, 224, 140, 210, 16, 4, 124, 6, 156, 182, 118, 83, 252, 108, 227, 56, 22, 125, 36, 196, 135, 15, 98, 14]",5f180469d29f570181bfb241,5f11ab6d62b89d048d6ad245,5f1824a05e92c404f739afa6,0.21,JimmyJim,,,4.0,0.0,1.0,654.2196846799925,f,215.43031535111368,f,test,1.0,,,
,p5cd_probe,73,259096,0.0-6.0-1.2-0.36,f078aa2862041786868ef9f2ad23336df49386eb98fe8259951830bdf7c3dbfd,5f11ab6d62b89d048d6ad245,"[31, 251, 179, 87, 213, 12, 72, 133, 171, 224, 140, 210, 16, 4, 124, 6, 156, 182, 118, 83, 252, 108, 227, 56, 22, 125, 36, 196, 135, 15, 98, 14]",5f180469d29f570181bfb241,5f11ab6d62b89d048d6ad245,5f1824a05e92c404f739afa6,0.21,JimmyJim,,,6.0,1.0,1.0,840.56461523287,j,323.7253847764805,j,test,1.0,,,
,p5cd_probe,74,261346,0.0-6.0-1.2-0.37,f078aa2862041786868ef9f2ad23336df49386eb98fe8259951830bdf7c3dbfd,5f11ab6d62b89d048d6ad245,"[31, 251, 179, 87, 213, 12, 72, 133, 171, 224, 140, 210, 16, 4, 124, 6, 156, 182, 118, 83, 252, 108, 227, 56, 22, 125, 36, 196, 135, 15, 98, 14]",5f180469d29f570181bfb241,5f11ab6d62b89d048d6ad245,5f1824a05e92c404f739afa6,0.21,JimmyJim,,,8.0,0.0,1.0,722.2472314257175,f,368.9977686153725,f,test,1.0,,,
,p5cd_probe,75,263513,0.0-6.0-1.2-0.38,f078aa2862041786868ef9f2ad23336df49386eb98fe8259951830bdf7c3dbfd,5f11ab6d62b89d048d6ad245,"[31, 251, 179, 87, 213, 12, 72, 133, 171, 224, 140, 210, 16, 4, 124, 6, 156, 182, 118, 83, 252, 108, 227, 56, 22, 125, 36, 196, 135, 15, 98, 14]",5f180469d29f570181bfb241,5f11ab6d62b89d048d6ad245,5f1824a05e92c404f739afa6,0.21,JimmyJim,,,2.0,1.0,0.0,810.4383890982717,j,193.4116109041497,j,test,1.0,,,
,p5cd_probe,76,265814,0.0-6.0-1.2-0.39,f078aa2862041786868ef9f2ad23336df49386eb98fe8259951830bdf7c3dbfd,5f11ab6d62b89d048d6ad245,"[31, 251, 179, 87, 213, 12, 72, 133, 171, 224, 140, 210, 16, 4, 124, 6, 156, 182, 118, 83, 252, 108, 227, 56, 22, 125, 36, 196, 135, 15, 98, 14]",5f180469d29f570181bfb241,5f11ab6d62b89d048d6ad245,5f1824a05e92c404f739afa6,0.21,JimmyJim,,,8.0,0.0,0.0,804.6535185654648,j,332.4264814145863,f,test,0.0,,,
,p5cd_probe,77,267964,0.0-6.0-1.2-0.40,f078aa2862041786868ef9f2ad23336df49386eb98fe8259951830bdf7c3dbfd,5f11ab6d62b89d048d6ad245,"[31, 251, 179, 87, 213, 12, 72, 133, 171, 224, 140, 210, 16, 4, 124, 6, 156, 182, 118, 83, 252, 108, 227, 56, 22, 125, 36, 196, 135, 15, 98, 14]",5f180469d29f570181bfb241,5f11ab6d62b89d048d6ad245,5f1824a05e92c404f739afa6,0.21,JimmyJim,,,6.0,0.0,0.0,670.927093969658,f,315.10790600441396,f,test,1.0,,,
,p5cd_probe,78,270350,0.0-6.0-1.2-0.41,f078aa2862041786868ef9f2ad23336df49386eb98fe8259951830bdf7c3dbfd,5f11ab6d62b89d048d6ad245,"[31, 251, 179, 87, 213, 12, 72, 133, 171, 224, 140, 210, 16, 4, 124, 6, 156, 182, 118, 83, 252, 108, 227, 56, 22, 125, 36, 196, 135, 15, 98, 14]",5f180469d29f570181bfb241,5f11ab6d62b89d048d6ad245,5f1824a05e92c404f739afa6,0.21,JimmyJim,,,8.0,1.0,0.0,759.5097685349174,j,461.8902314687148,j,test,1.0,,,
,p5cd_probe,79,272600,0.0-6.0-1.2-0.42,f078aa2862041786868ef9f2ad23336df49386eb98fe8259951830bdf7c3dbfd,5f11ab6d62b89d048d6ad245,"[31, 251, 179, 87, 213, 12, 72, 133, 171, 224, 140, 210, 16, 4, 124, 6, 156, 182, 118, 83, 252, 108, 227, 56, 22, 125, 36, 196, 135, 15, 98, 14]",5f180469d29f570181bfb241,5f11ab6d62b89d048d6ad245,5f1824a05e92c404f739afa6,0.21,JimmyJim,,,6.0,1.0,0.0,911.750179505907,f,174.41482050344348,j,test,0.0,,,
,p5cd_probe,80,275085,0.0-6.0-1.2-0.43,f078aa2862041786868ef9f2ad23336df49386eb98fe8259951830bdf7c3dbfd,5f11ab6d62b89d048d6ad245,"[31, 251, 179, 87, 213, 12, 72, 133, 171, 224, 140, 210, 16, 4, 124, 6, 156, 182, 118, 83, 252, 108, 227, 56, 22, 125, 36, 196, 135, 15, 98, 14]",5f180469d29f570181bfb241,5f11ab6d62b89d048d6ad245,5f1824a05e92c404f739afa6,0.21,JimmyJim,,,4.0,1.0,1.0,842.9886439931579,j,478.70635602157563,j,test,1.0,,,
,p5cd_probe,81,277320,0.0-6.0-1.2-0.44,f078aa2862041786868ef9f2ad23336df49386eb98fe8259951830bdf7c3dbfd,5f11ab6d62b89d048d6ad245,"[31, 251, 179, 87, 213, 12, 72, 133, 171, 224, 140, 210, 16, 4, 124, 6, 156, 182, 118, 83, 252, 108, 227, 56, 22, 125, 36, 196, 135, 15, 98, 14]",5f180469d29f570181bfb241,5f11ab6d62b89d048d6ad245,5f1824a05e92c404f739afa6,0.21,JimmyJim,,,2.0,1.0,1.0,742.1122155152261,j,337.98278449103236,j,test,1.0,,,
,p5cd_probe,82,279802,0.0-6.0-1.2-0.45,f078aa2862041786868ef9f2ad23336df49386eb98fe8259951830bdf7c3dbfd,5f11ab6d62b89d048d6ad245,"[31, 251, 179, 87, 213, 12, 72, 133, 171, 224, 140, 210, 16, 4, 124, 6, 156, 182, 118, 83, 252, 108, 227, 56, 22, 125, 36, 196, 135, 15, 98, 14]",5f180469d29f570181bfb241,5f11ab6d62b89d048d6ad245,5f1824a05e92c404f739afa6,0.21,JimmyJim,,,8.0,1.0,1.0,999.7788226115517,j,318.6961773317307,j,test,1.0,,,
,p5cd_probe,83,282355,0.0-6.0-1.2-0.46,f078aa2862041786868ef9f2ad23336df49386eb98fe8259951830bdf7c3dbfd,5f11ab6d62b89d048d6ad245,"[31, 251, 179, 87, 213, 12, 72, 133, 171, 224, 140, 210, 16, 4, 124, 6, 156, 182, 118, 83, 252, 108, 227, 56, 22, 125, 36, 196, 135, 15, 98, 14]",5f180469d29f570181bfb241,5f11ab6d62b89d048d6ad245,5f1824a05e92c404f739afa6,0.21,JimmyJim,,,2.0,0.0,1.0,963.9010927872732,f,430.128907202743,f,test,1.0,,,
,p5cd_probe,84,284754,0.0-6.0-1.2-0.47,f078aa2862041786868ef9f2ad23336df49386eb98fe8259951830bdf7c3dbfd,5f11ab6d62b89d048d6ad245,"[31, 251, 179, 87, 213, 12, 72, 133, 171, 224, 140, 210, 16, 4, 124, 6, 156, 182, 118, 83, 252, 108, 227, 56, 22, 125, 36, 196, 135, 15, 98, 14]",5f180469d29f570181bfb241,5f11ab6d62b89d048d6ad245,5f1824a05e92c404f739afa6,0.21,JimmyJim,,,2.0,0.0,0.0,871.501881419681,f,371.8931186012924,f,test,1.0,,,
,p5Text,85,292255,0.0-6.0-2.2,f078aa2862041786868ef9f2ad23336df49386eb98fe8259951830bdf7c3dbfd,5f11ab6d62b89d048d6ad245,"[31, 251, 179, 87, 213, 12, 72, 133, 171, 224, 140, 210, 16, 4, 124, 6, 156, 182, 118, 83, 252, 108, 227, 56, 22, 125, 36, 196, 135, 15, 98, 14]",5f180469d29f570181bfb241,5f11ab6d62b89d048d6ad245,5f1824a05e92c404f739afa6,0.21,JimmyJim,,,,,,,,,,,,,,
,p5Text,86,295733,0.0-6.0-0.3,f078aa2862041786868ef9f2ad23336df49386eb98fe8259951830bdf7c3dbfd,5f11ab6d62b89d048d6ad245,"[31, 251, 179, 87, 213, 12, 72, 133, 171, 224, 140, 210, 16, 4, 124, 6, 156, 182, 118, 83, 252, 108, 227, 56, 22, 125, 36, 196, 135, 15, 98, 14]",5f180469d29f570181bfb241,5f11ab6d62b89d048d6ad245,5f1824a05e92c404f739afa6,0.21,JimmyJim,,,,,,,,,,,,,,
,p5cd_probe,87,297659,0.0-6.0-1.3-0.48,f078aa2862041786868ef9f2ad23336df49386eb98fe8259951830bdf7c3dbfd,5f11ab6d62b89d048d6ad245,"[31, 251, 179, 87, 213, 12, 72, 133, 171, 224, 140, 210, 16, 4, 124, 6, 156, 182, 118, 83, 252, 108, 227, 56, 22, 125, 36, 196, 135, 15, 98, 14]",5f180469d29f570181bfb241,5f11ab6d62b89d048d6ad245,5f1824a05e92c404f739afa6,0.21,JimmyJim,,,8.0,1.0,1.0,691.9463675818406,f,70.02863241359591,j,test,0.0,,,
,p5cd_probe,88,299727,0.0-6.0-1.3-0.49,f078aa2862041786868ef9f2ad23336df49386eb98fe8259951830bdf7c3dbfd,5f11ab6d62b89d048d6ad245,"[31, 251, 179, 87, 213, 12, 72, 133, 171, 224, 140, 210, 16, 4, 124, 6, 156, 182, 118, 83, 252, 108, 227, 56, 22, 125, 36, 196, 135, 15, 98, 14]",5f180469d29f570181bfb241,5f11ab6d62b89d048d6ad245,5f1824a05e92c404f739afa6,0.21,JimmyJim,,,4.0,0.0,0.0,738.467003707774,j,166.8629962950945,f,test,0.0,,,
,p5cd_probe,89,301912,0.0-6.0-1.3-0.50,f078aa2862041786868ef9f2ad23336df49386eb98fe8259951830bdf7c3dbfd,5f11ab6d62b89d048d6ad245,"[31, 251, 179, 87, 213, 12, 72, 133, 171, 224, 140, 210, 16, 4, 124, 6, 156, 182, 118, 83, 252, 108, 227, 56, 22, 125, 36, 196, 135, 15, 98, 14]",5f180469d29f570181bfb241,5f11ab6d62b89d048d6ad245,5f1824a05e92c404f739afa6,0.21,JimmyJim,,,8.0,0.0,1.0,664.080344629474,f,363.3296553744003,f,test,1.0,,,
,p5cd_probe,90,304246,0.0-6.0-1.3-0.51,f078aa2862041786868ef9f2ad23336df49386eb98fe8259951830bdf7c3dbfd,5f11ab6d62b89d048d6ad245,"[31, 251, 179, 87, 213, 12, 72, 133, 171, 224, 140, 210, 16, 4, 124, 6, 156, 182, 118, 83, 252, 108, 227, 56, 22, 125, 36, 196, 135, 15, 98, 14]",5f180469d29f570181bfb241,5f11ab6d62b89d048d6ad245,5f1824a05e92c404f739afa6,0.21,JimmyJim,,,4.0,1.0,0.0,811.5208110772073,f,361.98918893933296,j,test,0.0,,,
,p5cd_probe,91,306580,0.0-6.0-1.3-0.52,f078aa2862041786868ef9f2ad23336df49386eb98fe8259951830bdf7c3dbfd,5f11ab6d62b89d048d6ad245,"[31, 251, 179, 87, 213, 12, 72, 133, 171, 224, 140, 210, 16, 4, 124, 6, 156, 182, 118, 83, 252, 108, 227, 56, 22, 125, 36, 196, 135, 15, 98, 14]",5f180469d29f570181bfb241,5f11ab6d62b89d048d6ad245,5f1824a05e92c404f739afa6,0.21,JimmyJim,,,4.0,1.0,1.0,773.4868853236549,j,397.5731147220358,j,test,1.0,,,
,p5cd_probe,92,308930,0.0-6.0-1.3-0.53,f078aa2862041786868ef9f2ad23336df49386eb98fe8259951830bdf7c3dbfd,5f11ab6d62b89d048d6ad245,"[31, 251, 179, 87, 213, 12, 72, 133, 171, 224, 140, 210, 16, 4, 124, 6, 156, 182, 118, 83, 252, 108, 227, 56, 22, 125, 36, 196, 135, 15, 98, 14]",5f180469d29f570181bfb241,5f11ab6d62b89d048d6ad245,5f1824a05e92c404f739afa6,0.21,JimmyJim,,,2.0,1.0,0.0,922.2003086702898,j,273.05469138082117,j,test,1.0,,,
,p5cd_probe,93,311416,0.0-6.0-1.3-0.54,f078aa2862041786868ef9f2ad23336df49386eb98fe8259951830bdf7c3dbfd,5f11ab6d62b89d048d6ad245,"[31, 251, 179, 87, 213, 12, 72, 133, 171, 224, 140, 210, 16, 4, 124, 6, 156, 182, 118, 83, 252, 108, 227, 56, 22, 125, 36, 196, 135, 15, 98, 14]",5f180469d29f570181bfb241,5f11ab6d62b89d048d6ad245,5f1824a05e92c404f739afa6,0.21,JimmyJim,,,2.0,0.0,0.0,956.3816811656579,f,364.88831881433725,f,test,1.0,,,
,p5cd_probe,94,313700,0.0-6.0-1.3-0.55,f078aa2862041786868ef9f2ad23336df49386eb98fe8259951830bdf7c3dbfd,5f11ab6d62b89d048d6ad245,"[31, 251, 179, 87, 213, 12, 72, 133, 171, 224, 140, 210, 16, 4, 124, 6, 156, 182, 118, 83, 252, 108, 227, 56, 22, 125, 36, 196, 135, 15, 98, 14]",5f180469d29f570181bfb241,5f11ab6d62b89d048d6ad245,5f1824a05e92c404f739afa6,0.21,JimmyJim,,,8.0,1.0,0.0,745.8169696852565,j,384.2080303002149,j,test,1.0,,,
,p5cd_probe,95,315883,0.0-6.0-1.3-0.56,f078aa2862041786868ef9f2ad23336df49386eb98fe8259951830bdf7c3dbfd,5f11ab6d62b89d048d6ad245,"[31, 251, 179, 87, 213, 12, 72, 133, 171, 224, 140, 210, 16, 4, 124, 6, 156, 182, 118, 83, 252, 108, 227, 56, 22, 125, 36, 196, 135, 15, 98, 14]",5f180469d29f570181bfb241,5f11ab6d62b89d048d6ad245,5f1824a05e92c404f739afa6,0.21,JimmyJim,,,6.0,1.0,1.0,854.8349018907174,f,174.17509807273746,j,test,0.0,,,
,p5cd_probe,96,318368,0.0-6.0-1.3-0.57,f078aa2862041786868ef9f2ad23336df49386eb98fe8259951830bdf7c3dbfd,5f11ab6d62b89d048d6ad245,"[31, 251, 179, 87, 213, 12, 72, 133, 171, 224, 140, 210, 16, 4, 124, 6, 156, 182, 118, 83, 252, 108, 227, 56, 22, 125, 36, 196, 135, 15, 98, 14]",5f180469d29f570181bfb241,5f11ab6d62b89d048d6ad245,5f1824a05e92c404f739afa6,0.21,JimmyJim,,,4.0,0.0,1.0,908.715982013382,f,412.2790179681033,f,test,1.0,,,
,p5cd_probe,97,320619,0.0-6.0-1.3-0.58,f078aa2862041786868ef9f2ad23336df49386eb98fe8259951830bdf7c3dbfd,5f11ab6d62b89d048d6ad245,"[31, 251, 179, 87, 213, 12, 72, 133, 171, 224, 140, 210, 16, 4, 124, 6, 156, 182, 118, 83, 252, 108, 227, 56, 22, 125, 36, 196, 135, 15, 98, 14]",5f180469d29f570181bfb241,5f11ab6d62b89d048d6ad245,5f1824a05e92c404f739afa6,0.21,JimmyJim,,,6.0,1.0,0.0,806.7794163594954,j,278.36558362469077,j,test,1.0,,,
,p5cd_probe,98,322787,0.0-6.0-1.3-0.59,f078aa2862041786868ef9f2ad23336df49386eb98fe8259951830bdf7c3dbfd,5f11ab6d62b89d048d6ad245,"[31, 251, 179, 87, 213, 12, 72, 133, 171, 224, 140, 210, 16, 4, 124, 6, 156, 182, 118, 83, 252, 108, 227, 56, 22, 125, 36, 196, 135, 15, 98, 14]",5f180469d29f570181bfb241,5f11ab6d62b89d048d6ad245,5f1824a05e92c404f739afa6,0.21,JimmyJim,,,6.0,0.0,1.0,901.2064378126524,f,110.39856215938926,f,test,1.0,,,
,p5cd_probe,99,324854,0.0-6.0-1.3-0.60,f078aa2862041786868ef9f2ad23336df49386eb98fe8259951830bdf7c3dbfd,5f11ab6d62b89d048d6ad245,"[31, 251, 179, 87, 213, 12, 72, 133, 171, 224, 140, 210, 16, 4, 124, 6, 156, 182, 118, 83, 252, 108, 227, 56, 22, 125, 36, 196, 135, 15, 98, 14]",5f180469d29f570181bfb241,5f11ab6d62b89d048d6ad245,5f1824a05e92c404f739afa6,0.21,JimmyJim,,,8.0,0.0,0.0,836.2181207863614,f,63.576879212632775,f,test,1.0,,,
,p5cd_probe,100,326821,0.0-6.0-1.3-0.61,f078aa2862041786868ef9f2ad23336df49386eb98fe8259951830bdf7c3dbfd,5f11ab6d62b89d048d6ad245,"[31, 251, 179, 87, 213, 12, 72, 133, 171, 224, 140, 210, 16, 4, 124, 6, 156, 182, 118, 83, 252, 108, 227, 56, 22, 125, 36, 196, 135, 15, 98, 14]",5f180469d29f570181bfb241,5f11ab6d62b89d048d6ad245,5f1824a05e92c404f739afa6,0.21,JimmyJim,,,2.0,1.0,1.0,703.2049325294793,j,99.61006743833423,j,test,1.0,,,
,p5cd_probe,101,329172,0.0-6.0-1.3-0.62,f078aa2862041786868ef9f2ad23336df49386eb98fe8259951830bdf7c3dbfd,5f11ab6d62b89d048d6ad245,"[31, 251, 179, 87, 213, 12, 72, 133, 171, 224, 140, 210, 16, 4, 124, 6, 156, 182, 118, 83, 252, 108, 227, 56, 22, 125, 36, 196, 135, 15, 98, 14]",5f180469d29f570181bfb241,5f11ab6d62b89d048d6ad245,5f1824a05e92c404f739afa6,0.21,JimmyJim,,,6.0,0.0,0.0,692.1155509422533,f,495.5694490345195,f,test,1.0,,,
,p5cd_probe,102,331706,0.0-6.0-1.3-0.63,f078aa2862041786868ef9f2ad23336df49386eb98fe8259951830bdf7c3dbfd,5f11ab6d62b89d048d6ad245,"[31, 251, 179, 87, 213, 12, 72, 133, 171, 224, 140, 210, 16, 4, 124, 6, 156, 182, 118, 83, 252, 108, 227, 56, 22, 125, 36, 196, 135, 15, 98, 14]",5f180469d29f570181bfb241,5f11ab6d62b89d048d6ad245,5f1824a05e92c404f739afa6,0.21,JimmyJim,,,2.0,0.0,1.0,1093.388430273626,f,280.7165697449818,f,test,1.0,,,
,p5Text,103,335980,0.0-6.0-2.3,f078aa2862041786868ef9f2ad23336df49386eb98fe8259951830bdf7c3dbfd,5f11ab6d62b89d048d6ad245,"[31, 251, 179, 87, 213, 12, 72, 133, 171, 224, 140, 210, 16, 4, 124, 6, 156, 182, 118, 83, 252, 108, 227, 56, 22, 125, 36, 196, 135, 15, 98, 14]",5f180469d29f570181bfb241,5f11ab6d62b89d048d6ad245,5f1824a05e92c404f739afa6,0.21,JimmyJim,,,,,,,,,,,,,,
,survey-text,104,385293,0.0-7.0,f078aa2862041786868ef9f2ad23336df49386eb98fe8259951830bdf7c3dbfd,5f11ab6d62b89d048d6ad245,"[31, 251, 179, 87, 213, 12, 72, 133, 171, 224, 140, 210, 16, 4, 124, 6, 156, 182, 118, 83, 252, 108, 227, 56, 22, 125, 36, 196, 135, 15, 98, 14]",5f180469d29f570181bfb241,5f11ab6d62b89d048d6ad245,5f1824a05e92c404f739afa6,0.21,JimmyJim,49303.39499999536,,,,,,,,,,,,,"{""worker_comments"":"" no thoughts""}"
,p5Text,105,393799,0.0-8.0,f078aa2862041786868ef9f2ad23336df49386eb98fe8259951830bdf7c3dbfd,5f11ab6d62b89d048d6ad245,"[31, 251, 179, 87, 213, 12, 72, 133, 171, 224, 140, 210, 16, 4, 124, 6, 156, 182, 118, 83, 252, 108, 227, 56, 22, 125, 36, 196, 135, 15, 98, 14]",5f180469d29f570181bfb241,5f11ab6d62b89d048d6ad245,5f1824a05e92c404f739afa6,0.21,JimmyJim,,,,,,,,,,,,,,
1.0,fullscreen,0,3165,0.0-0.0,f078aa2862041786868ef9f2ad23336df49386eb98fe8259951830bdf7c3dbfd,59e91d78d4ab970001389c67,"[198, 198, 193, 208, 163, 254, 168, 87, 74, 174, 254, 218, 65, 52, 66, 21, 25, 91, 97, 187, 86, 170, 197, 86, 146, 188, 102, 26, 111, 86, 234, 128]",5f180469d29f570181bfb241,59e91d78d4ab970001389c67,5f182235ec2e750da7782593,0.18,My Perfect Cousin,,,,,,,,,,,,,,
,external-html,1,32671,0.0-1.0,f078aa2862041786868ef9f2ad23336df49386eb98fe8259951830bdf7c3dbfd,59e91d78d4ab970001389c67,"[198, 198, 193, 208, 163, 254, 168, 87, 74, 174, 254, 218, 65, 52, 66, 21, 25, 91, 97, 187, 86, 170, 197, 86, 146, 188, 102, 26, 111, 86, 234, 128]",5f180469d29f570181bfb241,59e91d78d4ab970001389c67,5f182235ec2e750da7782593,0.18,My Perfect Cousin,29469.43000000101,nickname.html,,,,,,,,,,,,
,p5Text,2,35956,0.0-2.0,f078aa2862041786868ef9f2ad23336df49386eb98fe8259951830bdf7c3dbfd,59e91d78d4ab970001389c67,"[198, 198, 193, 208, 163, 254, 168, 87, 74, 174, 254, 218, 65, 52, 66, 21, 25, 91, 97, 187, 86, 170, 197, 86, 146, 188, 102, 26, 111, 86, 234, 128]",5f180469d29f570181bfb241,59e91d78d4ab970001389c67,5f182235ec2e750da7782593,0.18,My Perfect Cousin,,,,,,,,,,,,,,
,p5Text,3,50577,0.0-3.0-0.0,f078aa2862041786868ef9f2ad23336df49386eb98fe8259951830bdf7c3dbfd,59e91d78d4ab970001389c67,"[198, 198, 193, 208, 163, 254, 168, 87, 74, 174, 254, 218, 65, 52, 66, 21, 25, 91, 97, 187, 86, 170, 197, 86, 146, 188, 102, 26, 111, 86, 234, 128]",5f180469d29f570181bfb241,59e91d78d4ab970001389c67,5f182235ec2e750da7782593,0.18,My Perfect Cousin,,,,,,,,,,,,,,
,p5cd_probe,4,55296,0.0-3.0-1.0-0.0,f078aa2862041786868ef9f2ad23336df49386eb98fe8259951830bdf7c3dbfd,59e91d78d4ab970001389c67,"[198, 198, 193, 208, 163, 254, 168, 87, 74, 174, 254, 218, 65, 52, 66, 21, 25, 91, 97, 187, 86, 170, 197, 86, 146, 188, 102, 26, 111, 86, 234, 128]",5f180469d29f570181bfb241,59e91d78d4ab970001389c67,5f182235ec2e750da7782593,0.18,My Perfect Cousin,,,4.0,1.0,1.0,2993.7770746983006,f,212.80792530160397,j,practice,0.0,,,
,html-keyboard-response,5,56802,0.0-3.0-1.0-1.0,f078aa2862041786868ef9f2ad23336df49386eb98fe8259951830bdf7c3dbfd,59e91d78d4ab970001389c67,"[198, 198, 193, 208, 163, 254, 168, 87, 74, 174, 254, 218, 65, 52, 66, 21, 25, 91, 97, 187, 86, 170, 197, 86, 146, 188, 102, 26, 111, 86, 234, 128]",5f180469d29f570181bfb241,59e91d78d4ab970001389c67,5f182235ec2e750da7782593,0.18,My Perfect Cousin,,,,,,,,,,,,"<div style=""width:150px;height:56px;border:0px;font-size:30px;text-align:center"">wrong.</div>",,
,p5cd_probe,6,59808,0.0-3.0-1.0-0.1,f078aa2862041786868ef9f2ad23336df49386eb98fe8259951830bdf7c3dbfd,59e91d78d4ab970001389c67,"[198, 198, 193, 208, 163, 254, 168, 87, 74, 174, 254, 218, 65, 52, 66, 21, 25, 91, 97, 187, 86, 170, 197, 86, 146, 188, 102, 26, 111, 86, 234, 128]",5f180469d29f570181bfb241,59e91d78d4ab970001389c67,5f182235ec2e750da7782593,0.18,My Perfect Cousin,,,4.0,1.0,0.0,1364.3089077904733,f,121.28609220962971,j,practice,0.0,,,
,html-keyboard-response,7,61310,0.0-3.0-1.0-1.1,f078aa2862041786868ef9f2ad23336df49386eb98fe8259951830bdf7c3dbfd,59e91d78d4ab970001389c67,"[198, 198, 193, 208, 163, 254, 168, 87, 74, 174, 254, 218, 65, 52, 66, 21, 25, 91, 97, 187, 86, 170, 197, 86, 146, 188, 102, 26, 111, 86, 234, 128]",5f180469d29f570181bfb241,59e91d78d4ab970001389c67,5f182235ec2e750da7782593,0.18,My Perfect Cousin,,,,,,,,,,,,"<div style=""width:150px;height:56px;border:0px;font-size:30px;text-align:center"">wrong.</div>",,
,p5cd_probe,8,65371,0.0-3.0-1.0-0.2,f078aa2862041786868ef9f2ad23336df49386eb98fe8259951830bdf7c3dbfd,59e91d78d4ab970001389c67,"[198, 198, 193, 208, 163, 254, 168, 87, 74, 174, 254, 218, 65, 52, 66, 21, 25, 91, 97, 187, 86, 170, 197, 86, 146, 188, 102, 26, 111, 86, 234, 128]",5f180469d29f570181bfb241,59e91d78d4ab970001389c67,5f182235ec2e750da7782593,0.18,My Perfect Cousin,,,4.0,0.0,0.0,2478.380674374421,f,66.87432562466711,f,practice,1.0,,,
,html-keyboard-response,9,66375,0.0-3.0-1.0-1.2,f078aa2862041786868ef9f2ad23336df49386eb98fe8259951830bdf7c3dbfd,59e91d78d4ab970001389c67,"[198, 198, 193, 208, 163, 254, 168, 87, 74, 174, 254, 218, 65, 52, 66, 21, 25, 91, 97, 187, 86, 170, 197, 86, 146, 188, 102, 26, 111, 86, 234, 128]",5f180469d29f570181bfb241,59e91d78d4ab970001389c67,5f182235ec2e750da7782593,0.18,My Perfect Cousin,,,,,,,,,,,,"<div style=""width:150px;height:56px;font-size:30px;text-align:center;"">correct!</div>",,
,p5cd_probe,10,69063,0.0-3.0-1.0-0.3,f078aa2862041786868ef9f2ad23336df49386eb98fe8259951830bdf7c3dbfd,59e91d78d4ab970001389c67,"[198, 198, 193, 208, 163, 254, 168, 87, 74, 174, 254, 218, 65, 52, 66, 21, 25, 91, 97, 187, 86, 170, 197, 86, 146, 188, 102, 26, 111, 86, 234, 128]",5f180469d29f570181bfb241,59e91d78d4ab970001389c67,5f182235ec2e750da7782593,0.18,My Perfect Cousin,,,4.0,0.0,1.0,782.5944295764202,f,392.5655704224482,f,practice,1.0,,,
,html-keyboard-response,11,70065,0.0-3.0-1.0-1.3,f078aa2862041786868ef9f2ad23336df49386eb98fe8259951830bdf7c3dbfd,59e91d78d4ab970001389c67,"[198, 198, 193, 208, 163, 254, 168, 87, 74, 174, 254, 218, 65, 52, 66, 21, 25, 91, 97, 187, 86, 170, 197, 86, 146, 188, 102, 26, 111, 86, 234, 128]",5f180469d29f570181bfb241,59e91d78d4ab970001389c67,5f182235ec2e750da7782593,0.18,My Perfect Cousin,,,,,,,,,,,,"<div style=""width:150px;height:56px;font-size:30px;text-align:center;"">correct!</div>",,
,p5Text,12,96637,0.0-3.1-0.1,f078aa2862041786868ef9f2ad23336df49386eb98fe8259951830bdf7c3dbfd,59e91d78d4ab970001389c67,"[198, 198, 193, 208, 163, 254, 168, 87, 74, 174, 254, 218, 65, 52, 66, 21, 25, 91, 97, 187, 86, 170, 197, 86, 146, 188, 102, 26, 111, 86, 234, 128]",5f180469d29f570181bfb241,59e91d78d4ab970001389c67,5f182235ec2e750da7782593,0.18,My Perfect Cousin,,,,,,,,,,,,,,
,p5cd_probe,13,99576,0.0-3.1-1.1-0.4,f078aa2862041786868ef9f2ad23336df49386eb98fe8259951830bdf7c3dbfd,59e91d78d4ab970001389c67,"[198, 198, 193, 208, 163, 254, 168, 87, 74, 174, 254, 218, 65, 52, 66, 21, 25, 91, 97, 187, 86, 170, 197, 86, 146, 188, 102, 26, 111, 86, 234, 128]",5f180469d29f570181bfb241,59e91d78d4ab970001389c67,5f182235ec2e750da7782593,0.18,My Perfect Cousin,,,4.0,1.0,1.0,1199.3941699674906,f,227.29583003092557,j,practice,0.0,,,
,html-keyboard-response,14,101081,0.0-3.1-1.1-1.4,f078aa2862041786868ef9f2ad23336df49386eb98fe8259951830bdf7c3dbfd,59e91d78d4ab970001389c67,"[198, 198, 193, 208, 163, 254, 168, 87, 74, 174, 254, 218, 65, 52, 66, 21, 25, 91, 97, 187, 86, 170, 197, 86, 146, 188, 102, 26, 111, 86, 234, 128]",5f180469d29f570181bfb241,59e91d78d4ab970001389c67,5f182235ec2e750da7782593,0.18,My Perfect Cousin,,,,,,,,,,,,"<div style=""width:150px;height:56px;border:0px;font-size:30px;text-align:center"">wrong.</div>",,
,p5cd_probe,15,103772,0.0-3.1-1.1-0.5,f078aa2862041786868ef9f2ad23336df49386eb98fe8259951830bdf7c3dbfd,59e91d78d4ab970001389c67,"[198, 198, 193, 208, 163, 254, 168, 87, 74, 174, 254, 218, 65, 52, 66, 21, 25, 91, 97, 187, 86, 170, 197, 86, 146, 188, 102, 26, 111, 86, 234, 128]",5f180469d29f570181bfb241,59e91d78d4ab970001389c67,5f182235ec2e750da7782593,0.18,My Perfect Cousin,,,4.0,0.0,1.0,1038.2962777857756,f,144.15372221264988,f,practice,1.0,,,
,html-keyboard-response,16,104775,0.0-3.1-1.1-1.5,f078aa2862041786868ef9f2ad23336df49386eb98fe8259951830bdf7c3dbfd,59e91d78d4ab970001389c67,"[198, 198, 193, 208, 163, 254, 168, 87, 74, 174, 254, 218, 65, 52, 66, 21, 25, 91, 97, 187, 86, 170, 197, 86, 146, 188, 102, 26, 111, 86, 234, 128]",5f180469d29f570181bfb241,59e91d78d4ab970001389c67,5f182235ec2e750da7782593,0.18,My Perfect Cousin,,,,,,,,,,,,"<div style=""width:150px;height:56px;font-size:30px;text-align:center;"">correct!</div>",,
,p5cd_probe,17,107531,0.0-3.1-1.1-0.6,f078aa2862041786868ef9f2ad23336df49386eb98fe8259951830bdf7c3dbfd,59e91d78d4ab970001389c67,"[198, 198, 193, 208, 163, 254, 168, 87, 74, 174, 254, 218, 65, 52, 66, 21, 25, 91, 97, 187, 86, 170, 197, 86, 146, 188, 102, 26, 111, 86, 234, 128]",5f180469d29f570181bfb241,59e91d78d4ab970001389c67,5f182235ec2e750da7782593,0.18,My Perfect Cousin,,,4.0,1.0,0.0,778.8112090402137,f,459.9487909581512,j,practice,0.0,,,
