success,trial_type,trial_index,time_elapsed,internal_node_id,protocol_sum,subject_identifier,subject_sum,STUDY_ID,PROLIFIC_PID,SESSION_ID,bonus,nickname,rt,url,set_size,change,addition,RT,response,jitter,correct_response,test_part,correct,stimulus,key_press,responses
1.0,fullscreen,0,3475,0.0-0.0,f078aa2862041786868ef9f2ad23336df49386eb98fe8259951830bdf7c3dbfd,5c483772ec38be0001b1a482,"[184, 68, 253, 230, 240, 251, 128, 72, 182, 226, 158, 27, 69, 200, 163, 115, 65, 79, 246, 6, 127, 148, 126, 187, 17, 188, 42, 59, 108, 89, 207, 202]",5f16fbd265c0910180e6bc92,5c483772ec38be0001b1a482,5f170f1427a1960008252279,0.31,POshdjc,,,,,,,,,,,,,,
,external-html,1,23713,0.0-1.0,f078aa2862041786868ef9f2ad23336df49386eb98fe8259951830bdf7c3dbfd,5c483772ec38be0001b1a482,"[184, 68, 253, 230, 240, 251, 128, 72, 182, 226, 158, 27, 69, 200, 163, 115, 65, 79, 246, 6, 127, 148, 126, 187, 17, 188, 42, 59, 108, 89, 207, 202]",5f16fbd265c0910180e6bc92,5c483772ec38be0001b1a482,5f170f1427a1960008252279,0.31,POshdjc,20200.675000000047,nickname.html,,,,,,,,,,,,
,p5Text,2,29052,0.0-2.0,f078aa2862041786868ef9f2ad23336df49386eb98fe8259951830bdf7c3dbfd,5c483772ec38be0001b1a482,"[184, 68, 253, 230, 240, 251, 128, 72, 182, 226, 158, 27, 69, 200, 163, 115, 65, 79, 246, 6, 127, 148, 126, 187, 17, 188, 42, 59, 108, 89, 207, 202]",5f16fbd265c0910180e6bc92,5c483772ec38be0001b1a482,5f170f1427a1960008252279,0.31,POshdjc,,,,,,,,,,,,,,
,p5Text,3,70871,0.0-3.0-0.0,f078aa2862041786868ef9f2ad23336df49386eb98fe8259951830bdf7c3dbfd,5c483772ec38be0001b1a482,"[184, 68, 253, 230, 240, 251, 128, 72, 182, 226, 158, 27, 69, 200, 163, 115, 65, 79, 246, 6, 127, 148, 126, 187, 17, 188, 42, 59, 108, 89, 207, 202]",5f16fbd265c0910180e6bc92,5c483772ec38be0001b1a482,5f170f1427a1960008252279,0.31,POshdjc,,,,,,,,,,,,,,
,p5cd_ad,4,76725,0.0-3.0-1.0-0.0,f078aa2862041786868ef9f2ad23336df49386eb98fe8259951830bdf7c3dbfd,5c483772ec38be0001b1a482,"[184, 68, 253, 230, 240, 251, 128, 72, 182, 226, 158, 27, 69, 200, 163, 115, 65, 79, 246, 6, 127, 148, 126, 187, 17, 188, 42, 59, 108, 89, 207, 202]",5f16fbd265c0910180e6bc92,5c483772ec38be0001b1a482,5f170f1427a1960008252279,0.31,POshdjc,,,3.0,0.0,1.0,4907.510786928469,f,424.95421308558434,f,practice,1.0,,,
,html-keyboard-response,5,77735,0.0-3.0-1.0-1.0,f078aa2862041786868ef9f2ad23336df49386eb98fe8259951830bdf7c3dbfd,5c483772ec38be0001b1a482,"[184, 68, 253, 230, 240, 251, 128, 72, 182, 226, 158, 27, 69, 200, 163, 115, 65, 79, 246, 6, 127, 148, 126, 187, 17, 188, 42, 59, 108, 89, 207, 202]",5f16fbd265c0910180e6bc92,5c483772ec38be0001b1a482,5f170f1427a1960008252279,0.31,POshdjc,,,,,,,,,,,,"<div style=""width:150px;height:56px;font-size:30px;text-align:center;"">correct!</div>",,
,p5cd_ad,6,80888,0.0-3.0-1.0-0.1,f078aa2862041786868ef9f2ad23336df49386eb98fe8259951830bdf7c3dbfd,5c483772ec38be0001b1a482,"[184, 68, 253, 230, 240, 251, 128, 72, 182, 226, 158, 27, 69, 200, 163, 115, 65, 79, 246, 6, 127, 148, 126, 187, 17, 188, 42, 59, 108, 89, 207, 202]",5f16fbd265c0910180e6bc92,5c483772ec38be0001b1a482,5f170f1427a1960008252279,0.31,POshdjc,,,3.0,1.0,1.0,2391.604148753686,j,244.48585126083344,j,practice,1.0,,,
,html-keyboard-response,7,81897,0.0-3.0-1.0-1.1,f078aa2862041786868ef9f2ad23336df49386eb98fe8259951830bdf7c3dbfd,5c483772ec38be0001b1a482,"[184, 68, 253, 230, 240, 251, 128, 72, 182, 226, 158, 27, 69, 200, 163, 115, 65, 79, 246, 6, 127, 148, 126, 187, 17, 188, 42, 59, 108, 89, 207, 202]",5f16fbd265c0910180e6bc92,5c483772ec38be0001b1a482,5f170f1427a1960008252279,0.31,POshdjc,,,,,,,,,,,,"<div style=""width:150px;height:56px;font-size:30px;text-align:center;"">correct!</div>",,
,p5cd_ad,8,84718,0.0-3.0-1.0-0.2,f078aa2862041786868ef9f2ad23336df49386eb98fe8259951830bdf7c3dbfd,5c483772ec38be0001b1a482,"[184, 68, 253, 230, 240, 251, 128, 72, 182, 226, 158, 27, 69, 200, 163, 115, 65, 79, 246, 6, 127, 148, 126, 187, 17, 188, 42, 59, 108, 89, 207, 202]",5f16fbd265c0910180e6bc92,5c483772ec38be0001b1a482,5f170f1427a1960008252279,0.31,POshdjc,,,3.0,0.0,0.0,2001.997949613724,f,313.29205038491637,f,practice,1.0,,,
,html-keyboard-response,9,85726,0.0-3.0-1.0-1.2,f078aa2862041786868ef9f2ad23336df49386eb98fe8259951830bdf7c3dbfd,5c483772ec38be0001b1a482,"[184, 68, 253, 230, 240, 251, 128, 72, 182, 226, 158, 27, 69, 200, 163, 115, 65, 79, 246, 6, 127, 148, 126, 187, 17, 188, 42, 59, 108, 89, 207, 202]",5f16fbd265c0910180e6bc92,5c483772ec38be0001b1a482,5f170f1427a1960008252279,0.31,POshdjc,,,,,,,,,,,,"<div style=""width:150px;height:56px;font-size:30px;text-align:center;"">correct!</div>",,
,p5cd_ad,10,89415,0.0-3.0-1.0-0.3,f078aa2862041786868ef9f2ad23336df49386eb98fe8259951830bdf7c3dbfd,5c483772ec38be0001b1a482,"[184, 68, 253, 230, 240, 251, 128, 72, 182, 226, 158, 27, 69, 200, 163, 115, 65, 79, 246, 6, 127, 148, 126, 187, 17, 188, 42, 59, 108, 89, 207, 202]",5f16fbd265c0910180e6bc92,5c483772ec38be0001b1a482,5f170f1427a1960008252279,0.31,POshdjc,,,3.0,1.0,0.0,3034.975428483449,j,142.84957153722644,j,practice,1.0,,,
,html-keyboard-response,11,90419,0.0-3.0-1.0-1.3,f078aa2862041786868ef9f2ad23336df49386eb98fe8259951830bdf7c3dbfd,5c483772ec38be0001b1a482,"[184, 68, 253, 230, 240, 251, 128, 72, 182, 226, 158, 27, 69, 200, 163, 115, 65, 79, 246, 6, 127, 148, 126, 187, 17, 188, 42, 59, 108, 89, 207, 202]",5f16fbd265c0910180e6bc92,5c483772ec38be0001b1a482,5f170f1427a1960008252279,0.31,POshdjc,,,,,,,,,,,,"<div style=""width:150px;height:56px;font-size:30px;text-align:center;"">correct!</div>",,
,p5Text,12,96978,0.0-4.0,f078aa2862041786868ef9f2ad23336df49386eb98fe8259951830bdf7c3dbfd,5c483772ec38be0001b1a482,"[184, 68, 253, 230, 240, 251, 128, 72, 182, 226, 158, 27, 69, 200, 163, 115, 65, 79, 246, 6, 127, 148, 126, 187, 17, 188, 42, 59, 108, 89, 207, 202]",5f16fbd265c0910180e6bc92,5c483772ec38be0001b1a482,5f170f1427a1960008252279,0.31,POshdjc,,,,,,,,,,,,,,
,p5Text,13,104718,0.0-5.0,f078aa2862041786868ef9f2ad23336df49386eb98fe8259951830bdf7c3dbfd,5c483772ec38be0001b1a482,"[184, 68, 253, 230, 240, 251, 128, 72, 182, 226, 158, 27, 69, 200, 163, 115, 65, 79, 246, 6, 127, 148, 126, 187, 17, 188, 42, 59, 108, 89, 207, 202]",5f16fbd265c0910180e6bc92,5c483772ec38be0001b1a482,5f170f1427a1960008252279,0.31,POshdjc,,,,,,,,,,,,,,
,p5Text,14,106907,0.0-6.0-0.0,f078aa2862041786868ef9f2ad23336df49386eb98fe8259951830bdf7c3dbfd,5c483772ec38be0001b1a482,"[184, 68, 253, 230, 240, 251, 128, 72, 182, 226, 158, 27, 69, 200, 163, 115, 65, 79, 246, 6, 127, 148, 126, 187, 17, 188, 42, 59, 108, 89, 207, 202]",5f16fbd265c0910180e6bc92,5c483772ec38be0001b1a482,5f170f1427a1960008252279,0.31,POshdjc,,,,,,,,,,,,,,
,p5cd_ad,15,109994,0.0-6.0-1.0-0.0,f078aa2862041786868ef9f2ad23336df49386eb98fe8259951830bdf7c3dbfd,5c483772ec38be0001b1a482,"[184, 68, 253, 230, 240, 251, 128, 72, 182, 226, 158, 27, 69, 200, 163, 115, 65, 79, 246, 6, 127, 148, 126, 187, 17, 188, 42, 59, 108, 89, 207, 202]",5f16fbd265c0910180e6bc92,5c483772ec38be0001b1a482,5f170f1427a1960008252279,0.31,POshdjc,,,9.0,0.0,0.0,2119.5441940799356,j,448.245805921033,f,test,0.0,,,
,p5cd_ad,16,112408,0.0-6.0-1.0-0.1,f078aa2862041786868ef9f2ad23336df49386eb98fe8259951830bdf7c3dbfd,5c483772ec38be0001b1a482,"[184, 68, 253, 230, 240, 251, 128, 72, 182, 226, 158, 27, 69, 200, 163, 115, 65, 79, 246, 6, 127, 148, 126, 187, 17, 188, 42, 59, 108, 89, 207, 202]",5f16fbd265c0910180e6bc92,5c483772ec38be0001b1a482,5f170f1427a1960008252279,0.31,POshdjc,,,9.0,0.0,1.0,1676.8313801730983,f,220.7886198302731,f,test,1.0,,,
,p5cd_ad,17,114289,0.0-6.0-1.0-0.2,f078aa2862041786868ef9f2ad23336df49386eb98fe8259951830bdf7c3dbfd,5c483772ec38be0001b1a482,"[184, 68, 253, 230, 240, 251, 128, 72, 182, 226, 158, 27, 69, 200, 163, 115, 65, 79, 246, 6, 127, 148, 126, 187, 17, 188, 42, 59, 108, 89, 207, 202]",5f16fbd265c0910180e6bc92,5c483772ec38be0001b1a482,5f170f1427a1960008252279,0.31,POshdjc,,,7.0,1.0,0.0,1207.8871889098082,j,157.2028110967949,j,test,1.0,,,
,p5cd_ad,18,117486,0.0-6.0-1.0-0.3,f078aa2862041786868ef9f2ad23336df49386eb98fe8259951830bdf7c3dbfd,5c483772ec38be0001b1a482,"[184, 68, 253, 230, 240, 251, 128, 72, 182, 226, 158, 27, 69, 200, 163, 115, 65, 79, 246, 6, 127, 148, 126, 187, 17, 188, 42, 59, 108, 89, 207, 202]",5f16fbd265c0910180e6bc92,5c483772ec38be0001b1a482,5f170f1427a1960008252279,0.31,POshdjc,,,9.0,1.0,0.0,2383.1995047803503,f,298.0954952072352,j,test,0.0,,,
,p5cd_ad,19,119667,0.0-6.0-1.0-0.4,f078aa2862041786868ef9f2ad23336df49386eb98fe8259951830bdf7c3dbfd,5c483772ec38be0001b1a482,"[184, 68, 253, 230, 240, 251, 128, 72, 182, 226, 158, 27, 69, 200, 163, 115, 65, 79, 246, 6, 127, 148, 126, 187, 17, 188, 42, 59, 108, 89, 207, 202]",5f16fbd265c0910180e6bc92,5c483772ec38be0001b1a482,5f170f1427a1960008252279,0.31,POshdjc,,,7.0,0.0,0.0,1671.1373002035543,j,1.592699787579476,f,test,0.0,,,
,p5cd_ad,20,123996,0.0-6.0-1.0-0.5,f078aa2862041786868ef9f2ad23336df49386eb98fe8259951830bdf7c3dbfd,5c483772ec38be0001b1a482,"[184, 68, 253, 230, 240, 251, 128, 72, 182, 226, 158, 27, 69, 200, 163, 115, 65, 79, 246, 6, 127, 148, 126, 187, 17, 188, 42, 59, 108, 89, 207, 202]",5f16fbd265c0910180e6bc92,5c483772ec38be0001b1a482,5f170f1427a1960008252279,0.31,POshdjc,,,11.0,0.0,1.0,3486.5083829208743,j,330.09161707013845,f,test,0.0,,,
,p5cd_ad,21,127710,0.0-6.0-1.0-0.6,f078aa2862041786868ef9f2ad23336df49386eb98fe8259951830bdf7c3dbfd,5c483772ec38be0001b1a482,"[184, 68, 253, 230, 240, 251, 128, 72, 182, 226, 158, 27, 69, 200, 163, 115, 65, 79, 246, 6, 127, 148, 126, 187, 17, 188, 42, 59, 108, 89, 207, 202]",5f16fbd265c0910180e6bc92,5c483772ec38be0001b1a482,5f170f1427a1960008252279,0.31,POshdjc,,,11.0,1.0,0.0,2958.8619341957383,f,247.43806582409889,j,test,0.0,,,
,p5cd_ad,22,131939,0.0-6.0-1.0-0.7,f078aa2862041786868ef9f2ad23336df49386eb98fe8259951830bdf7c3dbfd,5c483772ec38be0001b1a482,"[184, 68, 253, 230, 240, 251, 128, 72, 182, 226, 158, 27, 69, 200, 163, 115, 65, 79, 246, 6, 127, 148, 126, 187, 17, 188, 42, 59, 108, 89, 207, 202]",5f16fbd265c0910180e6bc92,5c483772ec38be0001b1a482,5f170f1427a1960008252279,0.31,POshdjc,,,1.0,0.0,1.0,3352.5375006429385,f,366.18749937042594,f,test,1.0,,,
,p5cd_ad,23,136552,0.0-6.0-1.0-0.8,f078aa2862041786868ef9f2ad23336df49386eb98fe8259951830bdf7c3dbfd,5c483772ec38be0001b1a482,"[184, 68, 253, 230, 240, 251, 128, 72, 182, 226, 158, 27, 69, 200, 163, 115, 65, 79, 246, 6, 127, 148, 126, 187, 17, 188, 42, 59, 108, 89, 207, 202]",5f16fbd265c0910180e6bc92,5c483772ec38be0001b1a482,5f170f1427a1960008252279,0.31,POshdjc,,,3.0,1.0,1.0,3805.2572437154595,j,300.6727562751621,j,test,1.0,,,
,p5cd_ad,24,139798,0.0-6.0-1.0-0.9,f078aa2862041786868ef9f2ad23336df49386eb98fe8259951830bdf7c3dbfd,5c483772ec38be0001b1a482,"[184, 68, 253, 230, 240, 251, 128, 72, 182, 226, 158, 27, 69, 200, 163, 115, 65, 79, 246, 6, 127, 148, 126, 187, 17, 188, 42, 59, 108, 89, 207, 202]",5f16fbd265c0910180e6bc92,5c483772ec38be0001b1a482,5f170f1427a1960008252279,0.31,POshdjc,,,5.0,1.0,1.0,2308.8174780423287,j,424.66752196196467,j,test,1.0,,,
,p5cd_ad,25,143313,0.0-6.0-1.0-0.10,f078aa2862041786868ef9f2ad23336df49386eb98fe8259951830bdf7c3dbfd,5c483772ec38be0001b1a482,"[184, 68, 253, 230, 240, 251, 128, 72, 182, 226, 158, 27, 69, 200, 163, 115, 65, 79, 246, 6, 127, 148, 126, 187, 17, 188, 42, 59, 108, 89, 207, 202]",5f16fbd265c0910180e6bc92,5c483772ec38be0001b1a482,5f170f1427a1960008252279,0.31,POshdjc,,,5.0,1.0,0.0,2719.9786615383346,f,278.53633847553283,j,test,0.0,,,
,p5cd_ad,26,146759,0.0-6.0-1.0-0.11,f078aa2862041786868ef9f2ad23336df49386eb98fe8259951830bdf7c3dbfd,5c483772ec38be0001b1a482,"[184, 68, 253, 230, 240, 251, 128, 72, 182, 226, 158, 27, 69, 200, 163, 115, 65, 79, 246, 6, 127, 148, 126, 187, 17, 188, 42, 59, 108, 89, 207, 202]",5f16fbd265c0910180e6bc92,5c483772ec38be0001b1a482,5f170f1427a1960008252279,0.31,POshdjc,,,1.0,0.0,0.0,2584.4629027415067,f,344.24709726590663,f,test,1.0,,,
,p5cd_ad,27,152920,0.0-6.0-1.0-0.12,f078aa2862041786868ef9f2ad23336df49386eb98fe8259951830bdf7c3dbfd,5c483772ec38be0001b1a482,"[184, 68, 253, 230, 240, 251, 128, 72, 182, 226, 158, 27, 69, 200, 163, 115, 65, 79, 246, 6, 127, 148, 126, 187, 17, 188, 42, 59, 108, 89, 207, 202]",5f16fbd265c0910180e6bc92,5c483772ec38be0001b1a482,5f170f1427a1960008252279,0.31,POshdjc,,,11.0,0.0,0.0,5528.91425479902,f,126.0457452153787,f,test,1.0,,,
,p5cd_ad,28,156334,0.0-6.0-1.0-0.13,f078aa2862041786868ef9f2ad23336df49386eb98fe8259951830bdf7c3dbfd,5c483772ec38be0001b1a482,"[184, 68, 253, 230, 240, 251, 128, 72, 182, 226, 158, 27, 69, 200, 163, 115, 65, 79, 246, 6, 127, 148, 126, 187, 17, 188, 42, 59, 108, 89, 207, 202]",5f16fbd265c0910180e6bc92,5c483772ec38be0001b1a482,5f170f1427a1960008252279,0.31,POshdjc,,,3.0,1.0,0.0,2531.7528612504248,j,365.717138745822,j,test,1.0,,,
,p5cd_ad,29,163126,0.0-6.0-1.0-0.14,f078aa2862041786868ef9f2ad23336df49386eb98fe8259951830bdf7c3dbfd,5c483772ec38be0001b1a482,"[184, 68, 253, 230, 240, 251, 128, 72, 182, 226, 158, 27, 69, 200, 163, 115, 65, 79, 246, 6, 127, 148, 126, 187, 17, 188, 42, 59, 108, 89, 207, 202]",5f16fbd265c0910180e6bc92,5c483772ec38be0001b1a482,5f170f1427a1960008252279,0.31,POshdjc,,,3.0,0.0,1.0,5802.870352403261,f,485.82464759238064,f,test,1.0,,,
,p5cd_ad,30,168638,0.0-6.0-1.0-0.15,f078aa2862041786868ef9f2ad23336df49386eb98fe8259951830bdf7c3dbfd,5c483772ec38be0001b1a482,"[184, 68, 253, 230, 240, 251, 128, 72, 182, 226, 158, 27, 69, 200, 163, 115, 65, 79, 246, 6, 127, 148, 126, 187, 17, 188, 42, 59, 108, 89, 207, 202]",5f16fbd265c0910180e6bc92,5c483772ec38be0001b1a482,5f170f1427a1960008252279,0.31,POshdjc,,,7.0,0.0,1.0,4615.203009947436,f,389.19699005782604,f,test,1.0,,,
,p5cd_ad,31,171170,0.0-6.0-1.0-0.16,f078aa2862041786868ef9f2ad23336df49386eb98fe8259951830bdf7c3dbfd,5c483772ec38be0001b1a482,"[184, 68, 253, 230, 240, 251, 128, 72, 182, 226, 158, 27, 69, 200, 163, 115, 65, 79, 246, 6, 127, 148, 126, 187, 17, 188, 42, 59, 108, 89, 207, 202]",5f16fbd265c0910180e6bc92,5c483772ec38be0001b1a482,5f170f1427a1960008252279,0.31,POshdjc,,,11.0,1.0,1.0,1929.164619621588,j,85.4253803845495,j,test,1.0,,,
,p5cd_ad,32,175748,0.0-6.0-1.0-0.17,f078aa2862041786868ef9f2ad23336df49386eb98fe8259951830bdf7c3dbfd,5c483772ec38be0001b1a482,"[184, 68, 253, 230, 240, 251, 128, 72, 182, 226, 158, 27, 69, 200, 163, 115, 65, 79, 246, 6, 127, 148, 126, 187, 17, 188, 42, 59, 108, 89, 207, 202]",5f16fbd265c0910180e6bc92,5c483772ec38be0001b1a482,5f170f1427a1960008252279,0.31,POshdjc,,,5.0,0.0,0.0,3663.9489049848635,f,406.22109500691295,f,test,1.0,,,
,p5cd_ad,33,178629,0.0-6.0-1.0-0.18,f078aa2862041786868ef9f2ad23336df49386eb98fe8259951830bdf7c3dbfd,5c483772ec38be0001b1a482,"[184, 68, 253, 230, 240, 251, 128, 72, 182, 226, 158, 27, 69, 200, 163, 115, 65, 79, 246, 6, 127, 148, 126, 187, 17, 188, 42, 59, 108, 89, 207, 202]",5f16fbd265c0910180e6bc92,5c483772ec38be0001b1a482,5f170f1427a1960008252279,0.31,POshdjc,,,7.0,1.0,1.0,2160.4002049425617,j,211.34479506872594,j,test,1.0,,,
,p5cd_ad,34,182725,0.0-6.0-1.0-0.19,f078aa2862041786868ef9f2ad23336df49386eb98fe8259951830bdf7c3dbfd,5c483772ec38be0001b1a482,"[184, 68, 253, 230, 240, 251, 128, 72, 182, 226, 158, 27, 69, 200, 163, 115, 65, 79, 246, 6, 127, 148, 126, 187, 17, 188, 42, 59, 108, 89, 207, 202]",5f16fbd265c0910180e6bc92,5c483772ec38be0001b1a482,5f170f1427a1960008252279,0.31,POshdjc,,,5.0,0.0,1.0,3456.451483682031,j,129.45351633243263,f,test,0.0,,,
,p5cd_ad,35,187121,0.0-6.0-1.0-0.20,f078aa2862041786868ef9f2ad23336df49386eb98fe8259951830bdf7c3dbfd,5c483772ec38be0001b1a482,"[184, 68, 253, 230, 240, 251, 128, 72, 182, 226, 158, 27, 69, 200, 163, 115, 65, 79, 246, 6, 127, 148, 126, 187, 17, 188, 42, 59, 108, 89, 207, 202]",5f16fbd265c0910180e6bc92,5c483772ec38be0001b1a482,5f170f1427a1960008252279,0.31,POshdjc,,,3.0,0.0,0.0,3768.0550698714796,f,110.86993012577295,f,test,1.0,,,
,p5cd_ad,36,190186,0.0-6.0-1.0-0.21,f078aa2862041786868ef9f2ad23336df49386eb98fe8259951830bdf7c3dbfd,5c483772ec38be0001b1a482,"[184, 68, 253, 230, 240, 251, 128, 72, 182, 226, 158, 27, 69, 200, 163, 115, 65, 79, 246, 6, 127, 148, 126, 187, 17, 188, 42, 59, 108, 89, 207, 202]",5f16fbd265c0910180e6bc92,5c483772ec38be0001b1a482,5f170f1427a1960008252279,0.31,POshdjc,,,1.0,1.0,1.0,2123.13516708673,j,422.37483290955424,j,test,1.0,,,
,p5cd_ad,37,194249,0.0-6.0-1.0-0.22,f078aa2862041786868ef9f2ad23336df49386eb98fe8259951830bdf7c3dbfd,5c483772ec38be0001b1a482,"[184, 68, 253, 230, 240, 251, 128, 72, 182, 226, 158, 27, 69, 200, 163, 115, 65, 79, 246, 6, 127, 148, 126, 187, 17, 188, 42, 59, 108, 89, 207, 202]",5f16fbd265c0910180e6bc92,5c483772ec38be0001b1a482,5f170f1427a1960008252279,0.31,POshdjc,,,9.0,1.0,1.0,3279.121124156518,f,279.7138758469373,j,test,0.0,,,
,p5cd_ad,38,196596,0.0-6.0-1.0-0.23,f078aa2862041786868ef9f2ad23336df49386eb98fe8259951830bdf7c3dbfd,5c483772ec38be0001b1a482,"[184, 68, 253, 230, 240, 251, 128, 72, 182, 226, 158, 27, 69, 200, 163, 115, 65, 79, 246, 6, 127, 148, 126, 187, 17, 188, 42, 59, 108, 89, 207, 202]",5f16fbd265c0910180e6bc92,5c483772ec38be0001b1a482,5f170f1427a1960008252279,0.31,POshdjc,,,1.0,1.0,0.0,1647.8720562008675,j,180.96294382121414,j,test,1.0,,,
,p5Text,39,201716,0.0-6.0-2.0,f078aa2862041786868ef9f2ad23336df49386eb98fe8259951830bdf7c3dbfd,5c483772ec38be0001b1a482,"[184, 68, 253, 230, 240, 251, 128, 72, 182, 226, 158, 27, 69, 200, 163, 115, 65, 79, 246, 6, 127, 148, 126, 187, 17, 188, 42, 59, 108, 89, 207, 202]",5f16fbd265c0910180e6bc92,5c483772ec38be0001b1a482,5f170f1427a1960008252279,0.31,POshdjc,,,,,,,,,,,,,,
,p5Text,40,206059,0.0-6.0-0.1,f078aa2862041786868ef9f2ad23336df49386eb98fe8259951830bdf7c3dbfd,5c483772ec38be0001b1a482,"[184, 68, 253, 230, 240, 251, 128, 72, 182, 226, 158, 27, 69, 200, 163, 115, 65, 79, 246, 6, 127, 148, 126, 187, 17, 188, 42, 59, 108, 89, 207, 202]",5f16fbd265c0910180e6bc92,5c483772ec38be0001b1a482,5f170f1427a1960008252279,0.31,POshdjc,,,,,,,,,,,,,,
,p5cd_ad,41,210978,0.0-6.0-1.1-0.24,f078aa2862041786868ef9f2ad23336df49386eb98fe8259951830bdf7c3dbfd,5c483772ec38be0001b1a482,"[184, 68, 253, 230, 240, 251, 128, 72, 182, 226, 158, 27, 69, 200, 163, 115, 65, 79, 246, 6, 127, 148, 126, 187, 17, 188, 42, 59, 108, 89, 207, 202]",5f16fbd265c0910180e6bc92,5c483772ec38be0001b1a482,5f170f1427a1960008252279,0.31,POshdjc,,,5.0,0.0,0.0,3963.6043396021705,j,431.43066042102873,f,test,0.0,,,
,p5cd_ad,42,214625,0.0-6.0-1.1-0.25,f078aa2862041786868ef9f2ad23336df49386eb98fe8259951830bdf7c3dbfd,5c483772ec38be0001b1a482,"[184, 68, 253, 230, 240, 251, 128, 72, 182, 226, 158, 27, 69, 200, 163, 115, 65, 79, 246, 6, 127, 148, 126, 187, 17, 188, 42, 59, 108, 89, 207, 202]",5f16fbd265c0910180e6bc92,5c483772ec38be0001b1a482,5f170f1427a1960008252279,0.31,POshdjc,,,9.0,0.0,0.0,3064.8316939768847,j,64.26830601412803,f,test,0.0,,,
,p5cd_ad,43,217639,0.0-6.0-1.1-0.26,f078aa2862041786868ef9f2ad23336df49386eb98fe8259951830bdf7c3dbfd,5c483772ec38be0001b1a482,"[184, 68, 253, 230, 240, 251, 128, 72, 182, 226, 158, 27, 69, 200, 163, 115, 65, 79, 246, 6, 127, 148, 126, 187, 17, 188, 42, 59, 108, 89, 207, 202]",5f16fbd265c0910180e6bc92,5c483772ec38be0001b1a482,5f170f1427a1960008252279,0.31,POshdjc,,,3.0,1.0,0.0,2171.993864874821,j,331.471135141328,j,test,1.0,,,
,p5cd_ad,44,220602,0.0-6.0-1.1-0.27,f078aa2862041786868ef9f2ad23336df49386eb98fe8259951830bdf7c3dbfd,5c483772ec38be0001b1a482,"[184, 68, 253, 230, 240, 251, 128, 72, 182, 226, 158, 27, 69, 200, 163, 115, 65, 79, 246, 6, 127, 148, 126, 187, 17, 188, 42, 59, 108, 89, 207, 202]",5f16fbd265c0910180e6bc92,5c483772ec38be0001b1a482,5f170f1427a1960008252279,0.31,POshdjc,,,11.0,0.0,1.0,1995.9340925852302,j,458.7009074166417,f,test,0.0,,,
,p5cd_ad,45,223483,0.0-6.0-1.1-0.28,f078aa2862041786868ef9f2ad23336df49386eb98fe8259951830bdf7c3dbfd,5c483772ec38be0001b1a482,"[184, 68, 253, 230, 240, 251, 128, 72, 182, 226, 158, 27, 69, 200, 163, 115, 65, 79, 246, 6, 127, 148, 126, 187, 17, 188, 42, 59, 108, 89, 207, 202]",5f16fbd265c0910180e6bc92,5c483772ec38be0001b1a482,5f170f1427a1960008252279,0.31,POshdjc,,,7.0,0.0,1.0,2267.775323067326,j,102.9996769502759,f,test,0.0,,,
,p5cd_ad,46,225797,0.0-6.0-1.1-0.29,f078aa2862041786868ef9f2ad23336df49386eb98fe8259951830bdf7c3dbfd,5c483772ec38be0001b1a482,"[184, 68, 253, 230, 240, 251, 128, 72, 182, 226, 158, 27, 69, 200, 163, 115, 65, 79, 246, 6, 127, 148, 126, 187, 17, 188, 42, 59, 108, 89, 207, 202]",5f16fbd265c0910180e6bc92,5c483772ec38be0001b1a482,5f170f1427a1960008252279,0.31,POshdjc,,,9.0,1.0,0.0,1793.2463428296614,j,12.418657192029059,j,test,1.0,,,
,p5cd_ad,47,228828,0.0-6.0-1.1-0.30,f078aa2862041786868ef9f2ad23336df49386eb98fe8259951830bdf7c3dbfd,5c483772ec38be0001b1a482,"[184, 68, 253, 230, 240, 251, 128, 72, 182, 226, 158, 27, 69, 200, 163, 115, 65, 79, 246, 6, 127, 148, 126, 187, 17, 188, 42, 59, 108, 89, 207, 202]",5f16fbd265c0910180e6bc92,5c483772ec38be0001b1a482,5f170f1427a1960008252279,0.31,POshdjc,,,3.0,1.0,1.0,2042.1284235198982,j,482.5865764869377,j,test,1.0,,,
,p5cd_ad,48,232758,0.0-6.0-1.1-0.31,f078aa2862041786868ef9f2ad23336df49386eb98fe8259951830bdf7c3dbfd,5c483772ec38be0001b1a482,"[184, 68, 253, 230, 240, 251, 128, 72, 182, 226, 158, 27, 69, 200, 163, 115, 65, 79, 246, 6, 127, 148, 126, 187, 17, 188, 42, 59, 108, 89, 207, 202]",5f16fbd265c0910180e6bc92,5c483772ec38be0001b1a482,5f170f1427a1960008252279,0.31,POshdjc,,,9.0,1.0,1.0,3032.5967996323016,j,384.02320037130266,j,test,1.0,,,
,p5cd_ad,49,235189,0.0-6.0-1.1-0.32,f078aa2862041786868ef9f2ad23336df49386eb98fe8259951830bdf7c3dbfd,5c483772ec38be0001b1a482,"[184, 68, 253, 230, 240, 251, 128, 72, 182, 226, 158, 27, 69, 200, 163, 115, 65, 79, 246, 6, 127, 148, 126, 187, 17, 188, 42, 59, 108, 89, 207, 202]",5f16fbd265c0910180e6bc92,5c483772ec38be0001b1a482,5f170f1427a1960008252279,0.31,POshdjc,,,11.0,1.0,0.0,1798.7324875721242,f,120.45751244295388,j,test,0.0,,,
,p5cd_ad,50,237836,0.0-6.0-1.1-0.33,f078aa2862041786868ef9f2ad23336df49386eb98fe8259951830bdf7c3dbfd,5c483772ec38be0001b1a482,"[184, 68, 253, 230, 240, 251, 128, 72, 182, 226, 158, 27, 69, 200, 163, 115, 65, 79, 246, 6, 127, 148, 126, 187, 17, 188, 42, 59, 108, 89, 207, 202]",5f16fbd265c0910180e6bc92,5c483772ec38be0001b1a482,5f170f1427a1960008252279,0.31,POshdjc,,,11.0,1.0,1.0,1839.9611209169962,j,303.69887908454984,j,test,1.0,,,
,p5cd_ad,51,243215,0.0-6.0-1.1-0.34,f078aa2862041786868ef9f2ad23336df49386eb98fe8259951830bdf7c3dbfd,5c483772ec38be0001b1a482,"[184, 68, 253, 230, 240, 251, 128, 72, 182, 226, 158, 27, 69, 200, 163, 115, 65, 79, 246, 6, 127, 148, 126, 187, 17, 188, 42, 59, 108, 89, 207, 202]",5f16fbd265c0910180e6bc92,5c483772ec38be0001b1a482,5f170f1427a1960008252279,0.31,POshdjc,,,5.0,1.0,1.0,4532.66743363929,f,337.14756637346,j,test,0.0,,,
,p5cd_ad,52,245646,0.0-6.0-1.1-0.35,f078aa2862041786868ef9f2ad23336df49386eb98fe8259951830bdf7c3dbfd,5c483772ec38be0001b1a482,"[184, 68, 253, 230, 240, 251, 128, 72, 182, 226, 158, 27, 69, 200, 163, 115, 65, 79, 246, 6, 127, 148, 126, 187, 17, 188, 42, 59, 108, 89, 207, 202]",5f16fbd265c0910180e6bc92,5c483772ec38be0001b1a482,5f170f1427a1960008252279,0.31,POshdjc,,,1.0,0.0,0.0,1764.8480196367018,f,162.6319803763181,f,test,1.0,,,
,p5cd_ad,53,248227,0.0-6.0-1.1-0.36,f078aa2862041786868ef9f2ad23336df49386eb98fe8259951830bdf7c3dbfd,5c483772ec38be0001b1a482,"[184, 68, 253, 230, 240, 251, 128, 72, 182, 226, 158, 27, 69, 200, 163, 115, 65, 79, 246, 6, 127, 148, 126, 187, 17, 188, 42, 59, 108, 89, 207, 202]",5f16fbd265c0910180e6bc92,5c483772ec38be0001b1a482,5f170f1427a1960008252279,0.31,POshdjc,,,1.0,1.0,1.0,1612.7945845655631,j,455.47541545238346,j,test,1.0,,,
,p5cd_ad,54,254954,0.0-6.0-1.1-0.37,f078aa2862041786868ef9f2ad23336df49386eb98fe8259951830bdf7c3dbfd,5c483772ec38be0001b1a482,"[184, 68, 253, 230, 240, 251, 128, 72, 182, 226, 158, 27, 69, 200, 163, 115, 65, 79, 246, 6, 127, 148, 126, 187, 17, 188, 42, 59, 108, 89, 207, 202]",5f16fbd265c0910180e6bc92,5c483772ec38be0001b1a482,5f170f1427a1960008252279,0.31,POshdjc,,,9.0,0.0,1.0,5889.880897011608,f,325.27910300996155,f,test,1.0,,,
,p5cd_ad,55,257835,0.0-6.0-1.1-0.38,f078aa2862041786868ef9f2ad23336df49386eb98fe8259951830bdf7c3dbfd,5c483772ec38be0001b1a482,"[184, 68, 253, 230, 240, 251, 128, 72, 182, 226, 158, 27, 69, 200, 163, 115, 65, 79, 246, 6, 127, 148, 126, 187, 17, 188, 42, 59, 108, 89, 207, 202]",5f16fbd265c0910180e6bc92,5c483772ec38be0001b1a482,5f170f1427a1960008252279,0.31,POshdjc,,,11.0,0.0,0.0,1961.9393202592619,j,402.0606797421351,f,test,0.0,,,
,p5cd_ad,56,261119,0.0-6.0-1.1-0.39,f078aa2862041786868ef9f2ad23336df49386eb98fe8259951830bdf7c3dbfd,5c483772ec38be0001b1a482,"[184, 68, 253, 230, 240, 251, 128, 72, 182, 226, 158, 27, 69, 200, 163, 115, 65, 79, 246, 6, 127, 148, 126, 187, 17, 188, 42, 59, 108, 89, 207, 202]",5f16fbd265c0910180e6bc92,5c483772ec38be0001b1a482,5f170f1427a1960008252279,0.31,POshdjc,,,1.0,1.0,0.0,2678.855291713262,j,91.47470828611404,j,test,1.0,,,
,p5cd_ad,57,263067,0.0-6.0-1.1-0.40,f078aa2862041786868ef9f2ad23336df49386eb98fe8259951830bdf7c3dbfd,5c483772ec38be0001b1a482,"[184, 68, 253, 230, 240, 251, 128, 72, 182, 226, 158, 27, 69, 200, 163, 115, 65, 79, 246, 6, 127, 148, 126, 187, 17, 188, 42, 59, 108, 89, 207, 202]",5f16fbd265c0910180e6bc92,5c483772ec38be0001b1a482,5f170f1427a1960008252279,0.31,POshdjc,,,3.0,0.0,0.0,1016.9872443948407,j,415.5827555805445,f,test,0.0,,,
,p5cd_ad,58,266331,0.0-6.0-1.1-0.41,f078aa2862041786868ef9f2ad23336df49386eb98fe8259951830bdf7c3dbfd,5c483772ec38be0001b1a482,"[184, 68, 253, 230, 240, 251, 128, 72, 182, 226, 158, 27, 69, 200, 163, 115, 65, 79, 246, 6, 127, 148, 126, 187, 17, 188, 42, 59, 108, 89, 207, 202]",5f16fbd265c0910180e6bc92,5c483772ec38be0001b1a482,5f170f1427a1960008252279,0.31,POshdjc,,,1.0,0.0,1.0,2260.4669703287072,j,487.88802966009825,f,test,0.0,,,
,p5cd_ad,59,270310,0.0-6.0-1.1-0.42,f078aa2862041786868ef9f2ad23336df49386eb98fe8259951830bdf7c3dbfd,5c483772ec38be0001b1a482,"[184, 68, 253, 230, 240, 251, 128, 72, 182, 226, 158, 27, 69, 200, 163, 115, 65, 79, 246, 6, 127, 148, 126, 187, 17, 188, 42, 59, 108, 89, 207, 202]",5f16fbd265c0910180e6bc92,5c483772ec38be0001b1a482,5f170f1427a1960008252279,0.31,POshdjc,,,5.0,1.0,0.0,3161.896771256579,f,313.018228742294,j,test,0.0,,,
,p5cd_ad,60,274092,0.0-6.0-1.1-0.43,f078aa2862041786868ef9f2ad23336df49386eb98fe8259951830bdf7c3dbfd,5c483772ec38be0001b1a482,"[184, 68, 253, 230, 240, 251, 128, 72, 182, 226, 158, 27, 69, 200, 163, 115, 65, 79, 246, 6, 127, 148, 126, 187, 17, 188, 42, 59, 108, 89, 207, 202]",5f16fbd265c0910180e6bc92,5c483772ec38be0001b1a482,5f170f1427a1960008252279,0.31,POshdjc,,,3.0,0.0,1.0,3251.272241875995,f,11.852758121676743,f,test,1.0,,,
,p5cd_ad,61,277187,0.0-6.0-1.1-0.44,f078aa2862041786868ef9f2ad23336df49386eb98fe8259951830bdf7c3dbfd,5c483772ec38be0001b1a482,"[184, 68, 253, 230, 240, 251, 128, 72, 182, 226, 158, 27, 69, 200, 163, 115, 65, 79, 246, 6, 127, 148, 126, 187, 17, 188, 42, 59, 108, 89, 207, 202]",5f16fbd265c0910180e6bc92,5c483772ec38be0001b1a482,5f170f1427a1960008252279,0.31,POshdjc,,,7.0,1.0,0.0,2355.0254431320354,j,226.26455686986446,j,test,1.0,,,
,p5cd_ad,62,281750,0.0-6.0-1.1-0.45,f078aa2862041786868ef9f2ad23336df49386eb98fe8259951830bdf7c3dbfd,5c483772ec38be0001b1a482,"[184, 68, 253, 230, 240, 251, 128, 72, 182, 226, 158, 27, 69, 200, 163, 115, 65, 79, 246, 6, 127, 148, 126, 187, 17, 188, 42, 59, 108, 89, 207, 202]",5f16fbd265c0910180e6bc92,5c483772ec38be0001b1a482,5f170f1427a1960008252279,0.31,POshdjc,,,5.0,0.0,1.0,3903.216344944667,f,148.00865505822003,f,test,1.0,,,
,p5cd_ad,63,284348,0.0-6.0-1.1-0.46,f078aa2862041786868ef9f2ad23336df49386eb98fe8259951830bdf7c3dbfd,5c483772ec38be0001b1a482,"[184, 68, 253, 230, 240, 251, 128, 72, 182, 226, 158, 27, 69, 200, 163, 115, 65, 79, 246, 6, 127, 148, 126, 187, 17, 188, 42, 59, 108, 89, 207, 202]",5f16fbd265c0910180e6bc92,5c483772ec38be0001b1a482,5f170f1427a1960008252279,0.31,POshdjc,,,7.0,0.0,0.0,1979.8918685410172,f,100.3581314580515,f,test,1.0,,,
,p5cd_ad,64,287660,0.0-6.0-1.1-0.47,f078aa2862041786868ef9f2ad23336df49386eb98fe8259951830bdf7c3dbfd,5c483772ec38be0001b1a482,"[184, 68, 253, 230, 240, 251, 128, 72, 182, 226, 158, 27, 69, 200, 163, 115, 65, 79, 246, 6, 127, 148, 126, 187, 17, 188, 42, 59, 108, 89, 207, 202]",5f16fbd265c0910180e6bc92,5c483772ec38be0001b1a482,5f170f1427a1960008252279,0.31,POshdjc,,,7.0,1.0,1.0,2644.256813218817,f,163.73318678233773,j,test,0.0,,,
,p5Text,65,290168,0.0-6.0-2.1,f078aa2862041786868ef9f2ad23336df49386eb98fe8259951830bdf7c3dbfd,5c483772ec38be0001b1a482,"[184, 68, 253, 230, 240, 251, 128, 72, 182, 226, 158, 27, 69, 200, 163, 115, 65, 79, 246, 6, 127, 148, 126, 187, 17, 188, 42, 59, 108, 89, 207, 202]",5f16fbd265c0910180e6bc92,5c483772ec38be0001b1a482,5f170f1427a1960008252279,0.31,POshdjc,,,,,,,,,,,,,,
,p5Text,66,292497,0.0-6.0-0.2,f078aa2862041786868ef9f2ad23336df49386eb98fe8259951830bdf7c3dbfd,5c483772ec38be0001b1a482,"[184, 68, 253, 230, 240, 251, 128, 72, 182, 226, 158, 27, 69, 200, 163, 115, 65, 79, 246, 6, 127, 148, 126, 187, 17, 188, 42, 59, 108, 89, 207, 202]",5f16fbd265c0910180e6bc92,5c483772ec38be0001b1a482,5f170f1427a1960008252279,0.31,POshdjc,,,,,,,,,,,,,,
,p5cd_ad,67,295287,0.0-6.0-1.2-0.48,f078aa2862041786868ef9f2ad23336df49386eb98fe8259951830bdf7c3dbfd,5c483772ec38be0001b1a482,"[184, 68, 253, 230, 240, 251, 128, 72, 182, 226, 158, 27, 69, 200, 163, 115, 65, 79, 246, 6, 127, 148, 126, 187, 17, 188, 42, 59, 108, 89, 207, 202]",5f16fbd265c0910180e6bc92,5c483772ec38be0001b1a482,5f170f1427a1960008252279,0.31,POshdjc,,,9.0,0.0,1.0,2217.646245553624,j,55.343754473142326,f,test,0.0,,,
,p5cd_ad,68,297684,0.0-6.0-1.2-0.49,f078aa2862041786868ef9f2ad23336df49386eb98fe8259951830bdf7c3dbfd,5c483772ec38be0001b1a482,"[184, 68, 253, 230, 240, 251, 128, 72, 182, 226, 158, 27, 69, 200, 163, 115, 65, 79, 246, 6, 127, 148, 126, 187, 17, 188, 42, 59, 108, 89, 207, 202]",5f16fbd265c0910180e6bc92,5c483772ec38be0001b1a482,5f170f1427a1960008252279,0.31,POshdjc,,,5.0,1.0,1.0,1884.1983945749234,f,7.056605420075357,j,test,0.0,,,
,p5cd_ad,69,300732,0.0-6.0-1.2-0.50,f078aa2862041786868ef9f2ad23336df49386eb98fe8259951830bdf7c3dbfd,5c483772ec38be0001b1a482,"[184, 68, 253, 230, 240, 251, 128, 72, 182, 226, 158, 27, 69, 200, 163, 115, 65, 79, 246, 6, 127, 148, 126, 187, 17, 188, 42, 59, 108, 89, 207, 202]",5f16fbd265c0910180e6bc92,5c483772ec38be0001b1a482,5f170f1427a1960008252279,0.31,POshdjc,,,3.0,1.0,0.0,2042.104436113732,j,488.2855638861656,j,test,1.0,,,
,p5cd_ad,70,303346,0.0-6.0-1.2-0.51,f078aa2862041786868ef9f2ad23336df49386eb98fe8259951830bdf7c3dbfd,5c483772ec38be0001b1a482,"[184, 68, 253, 230, 240, 251, 128, 72, 182, 226, 158, 27, 69, 200, 163, 115, 65, 79, 246, 6, 127, 148, 126, 187, 17, 188, 42, 59, 108, 89, 207, 202]",5f16fbd265c0910180e6bc92,5c483772ec38be0001b1a482,5f170f1427a1960008252279,0.31,POshdjc,,,7.0,1.0,1.0,1826.9348646863364,f,274.57513532135636,j,test,0.0,,,
,p5cd_ad,71,306492,0.0-6.0-1.2-0.52,f078aa2862041786868ef9f2ad23336df49386eb98fe8259951830bdf7c3dbfd,5c483772ec38be0001b1a482,"[184, 68, 253, 230, 240, 251, 128, 72, 182, 226, 158, 27, 69, 200, 163, 115, 65, 79, 246, 6, 127, 148, 126, 187, 17, 188, 42, 59, 108, 89, 207, 202]",5f16fbd265c0910180e6bc92,5c483772ec38be0001b1a482,5f170f1427a1960008252279,0.31,POshdjc,,,11.0,1.0,1.0,2181.3981307204813,j,459.9618692882359,j,test,1.0,,,
,p5cd_ad,72,309706,0.0-6.0-1.2-0.53,f078aa2862041786868ef9f2ad23336df49386eb98fe8259951830bdf7c3dbfd,5c483772ec38be0001b1a482,"[184, 68, 253, 230, 240, 251, 128, 72, 182, 226, 158, 27, 69, 200, 163, 115, 65, 79, 246, 6, 127, 148, 126, 187, 17, 188, 42, 59, 108, 89, 207, 202]",5f16fbd265c0910180e6bc92,5c483772ec38be0001b1a482,5f170f1427a1960008252279,0.31,POshdjc,,,11.0,0.0,0.0,2487.0674657577183,f,222.8175342315808,f,test,1.0,,,
,p5cd_ad,73,312154,0.0-6.0-1.2-0.54,f078aa2862041786868ef9f2ad23336df49386eb98fe8259951830bdf7c3dbfd,5c483772ec38be0001b1a482,"[184, 68, 253, 230, 240, 251, 128, 72, 182, 226, 158, 27, 69, 200, 163, 115, 65, 79, 246, 6, 127, 148, 126, 187, 17, 188, 42, 59, 108, 89, 207, 202]",5f16fbd265c0910180e6bc92,5c483772ec38be0001b1a482,5f170f1427a1960008252279,0.31,POshdjc,,,5.0,0.0,1.0,1844.242406426929,f,96.66759357787669,f,test,1.0,,,
,p5cd_ad,74,314536,0.0-6.0-1.2-0.55,f078aa2862041786868ef9f2ad23336df49386eb98fe8259951830bdf7c3dbfd,5c483772ec38be0001b1a482,"[184, 68, 253, 230, 240, 251, 128, 72, 182, 226, 158, 27, 69, 200, 163, 115, 65, 79, 246, 6, 127, 148, 126, 187, 17, 188, 42, 59, 108, 89, 207, 202]",5f16fbd265c0910180e6bc92,5c483772ec38be0001b1a482,5f170f1427a1960008252279,0.31,POshdjc,,,1.0,1.0,0.0,1703.5269451153,j,168.90305490233004,j,test,1.0,,,
,p5cd_ad,75,317183,0.0-6.0-1.2-0.56,f078aa2862041786868ef9f2ad23336df49386eb98fe8259951830bdf7c3dbfd,5c483772ec38be0001b1a482,"[184, 68, 253, 230, 240, 251, 128, 72, 182, 226, 158, 27, 69, 200, 163, 115, 65, 79, 246, 6, 127, 148, 126, 187, 17, 188, 42, 59, 108, 89, 207, 202]",5f16fbd265c0910180e6bc92,5c483772ec38be0001b1a482,5f170f1427a1960008252279,0.31,POshdjc,,,3.0,0.0,1.0,2006.8911067210138,f,135.64389327075332,f,test,1.0,,,
,p5cd_ad,76,320397,0.0-6.0-1.2-0.57,f078aa2862041786868ef9f2ad23336df49386eb98fe8259951830bdf7c3dbfd,5c483772ec38be0001b1a482,"[184, 68, 253, 230, 240, 251, 128, 72, 182, 226, 158, 27, 69, 200, 163, 115, 65, 79, 246, 6, 127, 148, 126, 187, 17, 188, 42, 59, 108, 89, 207, 202]",5f16fbd265c0910180e6bc92,5c483772ec38be0001b1a482,5f170f1427a1960008252279,0.31,POshdjc,,,9.0,1.0,0.0,2585.5008653597906,f,117.10413463879377,j,test,0.0,,,
,p5cd_ad,77,322778,0.0-6.0-1.2-0.58,f078aa2862041786868ef9f2ad23336df49386eb98fe8259951830bdf7c3dbfd,5c483772ec38be0001b1a482,"[184, 68, 253, 230, 240, 251, 128, 72, 182, 226, 158, 27, 69, 200, 163, 115, 65, 79, 246, 6, 127, 148, 126, 187, 17, 188, 42, 59, 108, 89, 207, 202]",5f16fbd265c0910180e6bc92,5c483772ec38be0001b1a482,5f170f1427a1960008252279,0.31,POshdjc,,,1.0,0.0,0.0,1675.160221522674,f,199.11977846641093,f,test,1.0,,,
,p5cd_ad,78,325592,0.0-6.0-1.2-0.59,f078aa2862041786868ef9f2ad23336df49386eb98fe8259951830bdf7c3dbfd,5c483772ec38be0001b1a482,"[184, 68, 253, 230, 240, 251, 128, 72, 182, 226, 158, 27, 69, 200, 163, 115, 65, 79, 246, 6, 127, 148, 126, 187, 17, 188, 42, 59, 108, 89, 207, 202]",5f16fbd265c0910180e6bc92,5c483772ec38be0001b1a482,5f170f1427a1960008252279,0.31,POshdjc,,,11.0,0.0,1.0,2069.394754827954,f,238.0452451761812,f,test,1.0,,,
,p5cd_ad,79,328923,0.0-6.0-1.2-0.60,f078aa2862041786868ef9f2ad23336df49386eb98fe8259951830bdf7c3dbfd,5c483772ec38be0001b1a482,"[184, 68, 253, 230, 240, 251, 128, 72, 182, 226, 158, 27, 69, 200, 163, 115, 65, 79, 246, 6, 127, 148, 126, 187, 17, 188, 42, 59, 108, 89, 207, 202]",5f16fbd265c0910180e6bc92,5c483772ec38be0001b1a482,5f170f1427a1960008252279,0.31,POshdjc,,,7.0,0.0,1.0,2638.4554706455674,f,183.69452934712172,f,test,1.0,,,
,p5cd_ad,80,331603,0.0-6.0-1.2-0.61,f078aa2862041786868ef9f2ad23336df49386eb98fe8259951830bdf7c3dbfd,5c483772ec38be0001b1a482,"[184, 68, 253, 230, 240, 251, 128, 72, 182, 226, 158, 27, 69, 200, 163, 115, 65, 79, 246, 6, 127, 148, 126, 187, 17, 188, 42, 59, 108, 89, 207, 202]",5f16fbd265c0910180e6bc92,5c483772ec38be0001b1a482,5f170f1427a1960008252279,0.31,POshdjc,,,5.0,0.0,0.0,1968.214029300725,f,205.0109707051888,f,test,1.0,,,
,p5cd_ad,81,334451,0.0-6.0-1.2-0.62,f078aa2862041786868ef9f2ad23336df49386eb98fe8259951830bdf7c3dbfd,5c483772ec38be0001b1a482,"[184, 68, 253, 230, 240, 251, 128, 72, 182, 226, 158, 27, 69, 200, 163, 115, 65, 79, 246, 6, 127, 148, 126, 187, 17, 188, 42, 59, 108, 89, 207, 202]",5f16fbd265c0910180e6bc92,5c483772ec38be0001b1a482,5f170f1427a1960008252279,0.31,POshdjc,,,11.0,1.0,0.0,1961.9562719017267,j,374.073728104122,j,test,1.0,,,
,p5cd_ad,82,337082,0.0-6.0-1.2-0.63,f078aa2862041786868ef9f2ad23336df49386eb98fe8259951830bdf7c3dbfd,5c483772ec38be0001b1a482,"[184, 68, 253, 230, 240, 251, 128, 72, 182, 226, 158, 27, 69, 200, 163, 115, 65, 79, 246, 6, 127, 148, 126, 187, 17, 188, 42, 59, 108, 89, 207, 202]",5f16fbd265c0910180e6bc92,5c483772ec38be0001b1a482,5f170f1427a1960008252279,0.31,POshdjc,,,9.0,0.0,0.0,1774.7697526647244,f,342.2302473336458,f,test,1.0,,,
,p5cd_ad,83,339812,0.0-6.0-1.2-0.64,f078aa2862041786868ef9f2ad23336df49386eb98fe8259951830bdf7c3dbfd,5c483772ec38be0001b1a482,"[184, 68, 253, 230, 240, 251, 128, 72, 182, 226, 158, 27, 69, 200, 163, 115, 65, 79, 246, 6, 127, 148, 126, 187, 17, 188, 42, 59, 108, 89, 207, 202]",5f16fbd265c0910180e6bc92,5c483772ec38be0001b1a482,5f170f1427a1960008252279,0.31,POshdjc,,,7.0,0.0,0.0,2171.5446048765443,f,50.96039513591677,f,test,1.0,,,
,p5cd_ad,84,342543,0.0-6.0-1.2-0.65,f078aa2862041786868ef9f2ad23336df49386eb98fe8259951830bdf7c3dbfd,5c483772ec38be0001b1a482,"[184, 68, 253, 230, 240, 251, 128, 72, 182, 226, 158, 27, 69, 200, 163, 115, 65, 79, 246, 6, 127, 148, 126, 187, 17, 188, 42, 59, 108, 89, 207, 202]",5f16fbd265c0910180e6bc92,5c483772ec38be0001b1a482,5f170f1427a1960008252279,0.31,POshdjc,,,5.0,1.0,0.0,2150.299871893367,j,66.05512811802328,j,test,1.0,,,
,p5cd_ad,85,345241,0.0-6.0-1.2-0.66,f078aa2862041786868ef9f2ad23336df49386eb98fe8259951830bdf7c3dbfd,5c483772ec38be0001b1a482,"[184, 68, 253, 230, 240, 251, 128, 72, 182, 226, 158, 27, 69, 200, 163, 115, 65, 79, 246, 6, 127, 148, 126, 187, 17, 188, 42, 59, 108, 89, 207, 202]",5f16fbd265c0910180e6bc92,5c483772ec38be0001b1a482,5f170f1427a1960008252279,0.31,POshdjc,,,1.0,1.0,1.0,1758.784130885033,j,430.73586910031736,j,test,1.0,,,
,p5cd_ad,86,348488,0.0-6.0-1.2-0.67,f078aa2862041786868ef9f2ad23336df49386eb98fe8259951830bdf7c3dbfd,5c483772ec38be0001b1a482,"[184, 68, 253, 230, 240, 251, 128, 72, 182, 226, 158, 27, 69, 200, 163, 115, 65, 79, 246, 6, 127, 148, 126, 187, 17, 188, 42, 59, 108, 89, 207, 202]",5f16fbd265c0910180e6bc92,5c483772ec38be0001b1a482,5f170f1427a1960008252279,0.31,POshdjc,,,7.0,1.0,0.0,2455.6960300833452,f,285.1389698917046,j,test,0.0,,,
,p5cd_ad,87,350702,0.0-6.0-1.2-0.68,f078aa2862041786868ef9f2ad23336df49386eb98fe8259951830bdf7c3dbfd,5c483772ec38be0001b1a482,"[184, 68, 253, 230, 240, 251, 128, 72, 182, 226, 158, 27, 69, 200, 163, 115, 65, 79, 246, 6, 127, 148, 126, 187, 17, 188, 42, 59, 108, 89, 207, 202]",5f16fbd265c0910180e6bc92,5c483772ec38be0001b1a482,5f170f1427a1960008252279,0.31,POshdjc,,,1.0,0.0,1.0,1582.0998156559654,f,124.62518434040248,f,test,1.0,,,
,p5cd_ad,88,354915,0.0-6.0-1.2-0.69,f078aa2862041786868ef9f2ad23336df49386eb98fe8259951830bdf7c3dbfd,5c483772ec38be0001b1a482,"[184, 68, 253, 230, 240, 251, 128, 72, 182, 226, 158, 27, 69, 200, 163, 115, 65, 79, 246, 6, 127, 148, 126, 187, 17, 188, 42, 59, 108, 89, 207, 202]",5f16fbd265c0910180e6bc92,5c483772ec38be0001b1a482,5f170f1427a1960008252279,0.31,POshdjc,,,3.0,1.0,1.0,3427.480980375549,f,269.36401962302625,j,test,0.0,,,
,p5cd_ad,89,357679,0.0-6.0-1.2-0.70,f078aa2862041786868ef9f2ad23336df49386eb98fe8259951830bdf7c3dbfd,5c483772ec38be0001b1a482,"[184, 68, 253, 230, 240, 251, 128, 72, 182, 226, 158, 27, 69, 200, 163, 115, 65, 79, 246, 6, 127, 148, 126, 187, 17, 188, 42, 59, 108, 89, 207, 202]",5f16fbd265c0910180e6bc92,5c483772ec38be0001b1a482,5f170f1427a1960008252279,0.31,POshdjc,,,9.0,1.0,1.0,2118.679022969445,f,135.68097702227533,j,test,0.0,,,
,p5cd_ad,90,360243,0.0-6.0-1.2-0.71,f078aa2862041786868ef9f2ad23336df49386eb98fe8259951830bdf7c3dbfd,5c483772ec38be0001b1a482,"[184, 68, 253, 230, 240, 251, 128, 72, 182, 226, 158, 27, 69, 200, 163, 115, 65, 79, 246, 6, 127, 148, 126, 187, 17, 188, 42, 59, 108, 89, 207, 202]",5f16fbd265c0910180e6bc92,5c483772ec38be0001b1a482,5f170f1427a1960008252279,0.31,POshdjc,,,3.0,0.0,0.0,1957.698130805511,j,98.63186918664724,f,test,0.0,,,
,p5Text,91,363782,0.0-6.0-2.2,f078aa2862041786868ef9f2ad23336df49386eb98fe8259951830bdf7c3dbfd,5c483772ec38be0001b1a482,"[184, 68, 253, 230, 240, 251, 128, 72, 182, 226, 158, 27, 69, 200, 163, 115, 65, 79, 246, 6, 127, 148, 126, 187, 17, 188, 42, 59, 108, 89, 207, 202]",5f16fbd265c0910180e6bc92,5c483772ec38be0001b1a482,5f170f1427a1960008252279,0.31,POshdjc,,,,,,,,,,,,,,
,p5Text,92,366199,0.0-6.0-0.3,f078aa2862041786868ef9f2ad23336df49386eb98fe8259951830bdf7c3dbfd,5c483772ec38be0001b1a482,"[184, 68, 253, 230, 240, 251, 128, 72, 182, 226, 158, 27, 69, 200, 163, 115, 65, 79, 246, 6, 127, 148, 126, 187, 17, 188, 42, 59, 108, 89, 207, 202]",5f16fbd265c0910180e6bc92,5c483772ec38be0001b1a482,5f170f1427a1960008252279,0.31,POshdjc,,,,,,,,,,,,,,
,p5cd_ad,93,369185,0.0-6.0-1.3-0.72,f078aa2862041786868ef9f2ad23336df49386eb98fe8259951830bdf7c3dbfd,5c483772ec38be0001b1a482,"[184, 68, 253, 230, 240, 251, 128, 72, 182, 226, 158, 27, 69, 200, 163, 115, 65, 79, 246, 6, 127, 148, 126, 187, 17, 188, 42, 59, 108, 89, 207, 202]",5f16fbd265c0910180e6bc92,5c483772ec38be0001b1a482,5f170f1427a1960008252279,0.31,POshdjc,,,5.0,1.0,1.0,2236.170272284653,f,232.92472772300243,j,test,0.0,,,
,p5cd_ad,94,371750,0.0-6.0-1.3-0.73,f078aa2862041786868ef9f2ad23336df49386eb98fe8259951830bdf7c3dbfd,5c483772ec38be0001b1a482,"[184, 68, 253, 230, 240, 251, 128, 72, 182, 226, 158, 27, 69, 200, 163, 115, 65, 79, 246, 6, 127, 148, 126, 187, 17, 188, 42, 59, 108, 89, 207, 202]",5f16fbd265c0910180e6bc92,5c483772ec38be0001b1a482,5f170f1427a1960008252279,0.31,POshdjc,,,11.0,1.0,1.0,1948.9151778107043,j,111.52482219040394,j,test,1.0,,,
,p5cd_ad,95,374231,0.0-6.0-1.3-0.74,f078aa2862041786868ef9f2ad23336df49386eb98fe8259951830bdf7c3dbfd,5c483772ec38be0001b1a482,"[184, 68, 253, 230, 240, 251, 128, 72, 182, 226, 158, 27, 69, 200, 163, 115, 65, 79, 246, 6, 127, 148, 126, 187, 17, 188, 42, 59, 108, 89, 207, 202]",5f16fbd265c0910180e6bc92,5c483772ec38be0001b1a482,5f170f1427a1960008252279,0.31,POshdjc,,,3.0,0.0,0.0,1946.4955670991912,f,16.41443290282041,f,test,1.0,,,
,p5cd_ad,96,377127,0.0-6.0-1.3-0.75,f078aa2862041786868ef9f2ad23336df49386eb98fe8259951830bdf7c3dbfd,5c483772ec38be0001b1a482,"[184, 68, 253, 230, 240, 251, 128, 72, 182, 226, 158, 27, 69, 200, 163, 115, 65, 79, 246, 6, 127, 148, 126, 187, 17, 188, 42, 59, 108, 89, 207, 202]",5f16fbd265c0910180e6bc92,5c483772ec38be0001b1a482,5f170f1427a1960008252279,0.31,POshdjc,,,7.0,1.0,1.0,2277.9496882285457,f,111.18031176738441,j,test,0.0,,,
,p5cd_ad,97,379875,0.0-6.0-1.3-0.76,f078aa2862041786868ef9f2ad23336df49386eb98fe8259951830bdf7c3dbfd,5c483772ec38be0001b1a482,"[184, 68, 253, 230, 240, 251, 128, 72, 182, 226, 158, 27, 69, 200, 163, 115, 65, 79, 246, 6, 127, 148, 126, 187, 17, 188, 42, 59, 108, 89, 207, 202]",5f16fbd265c0910180e6bc92,5c483772ec38be0001b1a482,5f170f1427a1960008252279,0.31,POshdjc,,,11.0,1.0,0.0,1847.6579697162379,f,383.91703029628843,j,test,0.0,,,
,p5cd_ad,98,382372,0.0-6.0-1.3-0.77,f078aa2862041786868ef9f2ad23336df49386eb98fe8259951830bdf7c3dbfd,5c483772ec38be0001b1a482,"[184, 68, 253, 230, 240, 251, 128, 72, 182, 226, 158, 27, 69, 200, 163, 115, 65, 79, 246, 6, 127, 148, 126, 187, 17, 188, 42, 59, 108, 89, 207, 202]",5f16fbd265c0910180e6bc92,5c483772ec38be0001b1a482,5f170f1427a1960008252279,0.31,POshdjc,,,7.0,1.0,0.0,1864.4337100558914,f,122.0412899274379,j,test,0.0,,,
,p5cd_ad,99,385170,0.0-6.0-1.3-0.78,f078aa2862041786868ef9f2ad23336df49386eb98fe8259951830bdf7c3dbfd,5c483772ec38be0001b1a482,"[184, 68, 253, 230, 240, 251, 128, 72, 182, 226, 158, 27, 69, 200, 163, 115, 65, 79, 246, 6, 127, 148, 126, 187, 17, 188, 42, 59, 108, 89, 207, 202]",5f16fbd265c0910180e6bc92,5c483772ec38be0001b1a482,5f170f1427a1960008252279,0.31,POshdjc,,,11.0,0.0,0.0,1896.3673771650065,f,384.8626228282228,f,test,1.0,,,
,p5cd_ad,100,388667,0.0-6.0-1.3-0.79,f078aa2862041786868ef9f2ad23336df49386eb98fe8259951830bdf7c3dbfd,5c483772ec38be0001b1a482,"[184, 68, 253, 230, 240, 251, 128, 72, 182, 226, 158, 27, 69, 200, 163, 115, 65, 79, 246, 6, 127, 148, 126, 187, 17, 188, 42, 59, 108, 89, 207, 202]",5f16fbd265c0910180e6bc92,5c483772ec38be0001b1a482,5f170f1427a1960008252279,0.31,POshdjc,,,7.0,0.0,0.0,2662.064412870677,f,319.00558713823557,f,test,1.0,,,
,p5cd_ad,101,390931,0.0-6.0-1.3-0.80,f078aa2862041786868ef9f2ad23336df49386eb98fe8259951830bdf7c3dbfd,5c483772ec38be0001b1a482,"[184, 68, 253, 230, 240, 251, 128, 72, 182, 226, 158, 27, 69, 200, 163, 115, 65, 79, 246, 6, 127, 148, 126, 187, 17, 188, 42, 59, 108, 89, 207, 202]",5f16fbd265c0910180e6bc92,5c483772ec38be0001b1a482,5f170f1427a1960008252279,0.31,POshdjc,,,1.0,1.0,1.0,1562.1283916407265,j,186.9616083567962,j,test,1.0,,,
,p5cd_ad,102,393378,0.0-6.0-1.3-0.81,f078aa2862041786868ef9f2ad23336df49386eb98fe8259951830bdf7c3dbfd,5c483772ec38be0001b1a482,"[184, 68, 253, 230, 240, 251, 128, 72, 182, 226, 158, 27, 69, 200, 163, 115, 65, 79, 246, 6, 127, 148, 126, 187, 17, 188, 42, 59, 108, 89, 207, 202]",5f16fbd265c0910180e6bc92,5c483772ec38be0001b1a482,5f170f1427a1960008252279,0.31,POshdjc,,,1.0,1.0,0.0,1624.1609597636852,j,316.94404024165124,j,test,1.0,,,
,p5cd_ad,103,395893,0.0-6.0-1.3-0.82,f078aa2862041786868ef9f2ad23336df49386eb98fe8259951830bdf7c3dbfd,5c483772ec38be0001b1a482,"[184, 68, 253, 230, 240, 251, 128, 72, 182, 226, 158, 27, 69, 200, 163, 115, 65, 79, 246, 6, 127, 148, 126, 187, 17, 188, 42, 59, 108, 89, 207, 202]",5f16fbd265c0910180e6bc92,5c483772ec38be0001b1a482,5f170f1427a1960008252279,0.31,POshdjc,,,7.0,0.0,1.0,1794.0580919967033,f,214.03690800070763,f,test,1.0,,,
,p5cd_ad,104,399290,0.0-6.0-1.3-0.83,f078aa2862041786868ef9f2ad23336df49386eb98fe8259951830bdf7c3dbfd,5c483772ec38be0001b1a482,"[184, 68, 253, 230, 240, 251, 128, 72, 182, 226, 158, 27, 69, 200, 163, 115, 65, 79, 246, 6, 127, 148, 126, 187, 17, 188, 42, 59, 108, 89, 207, 202]",5f16fbd265c0910180e6bc92,5c483772ec38be0001b1a482,5f170f1427a1960008252279,0.31,POshdjc,,,9.0,1.0,0.0,2500.441122567281,f,392.8138774354011,j,test,0.0,,,
,p5cd_ad,105,401605,0.0-6.0-1.3-0.84,f078aa2862041786868ef9f2ad23336df49386eb98fe8259951830bdf7c3dbfd,5c483772ec38be0001b1a482,"[184, 68, 253, 230, 240, 251, 128, 72, 182, 226, 158, 27, 69, 200, 163, 115, 65, 79, 246, 6, 127, 148, 126, 187, 17, 188, 42, 59, 108, 89, 207, 202]",5f16fbd265c0910180e6bc92,5c483772ec38be0001b1a482,5f170f1427a1960008252279,0.31,POshdjc,,,1.0,0.0,1.0,1627.9842235380784,f,178.23077645152807,f,test,1.0,,,
,p5cd_ad,106,404085,0.0-6.0-1.3-0.85,f078aa2862041786868ef9f2ad23336df49386eb98fe8259951830bdf7c3dbfd,5c483772ec38be0001b1a482,"[184, 68, 253, 230, 240, 251, 128, 72, 182, 226, 158, 27, 69, 200, 163, 115, 65, 79, 246, 6, 127, 148, 126, 187, 17, 188, 42, 59, 108, 89, 207, 202]",5f16fbd265c0910180e6bc92,5c483772ec38be0001b1a482,5f170f1427a1960008252279,0.31,POshdjc,,,9.0,1.0,1.0,1960.5263440171257,f,12.903655995614827,j,test,0.0,,,
,p5cd_ad,107,406749,0.0-6.0-1.3-0.86,f078aa2862041786868ef9f2ad23336df49386eb98fe8259951830bdf7c3dbfd,5c483772ec38be0001b1a482,"[184, 68, 253, 230, 240, 251, 128, 72, 182, 226, 158, 27, 69, 200, 163, 115, 65, 79, 246, 6, 127, 148, 126, 187, 17, 188, 42, 59, 108, 89, 207, 202]",5f16fbd265c0910180e6bc92,5c483772ec38be0001b1a482,5f170f1427a1960008252279,0.31,POshdjc,,,11.0,0.0,1.0,2033.5621174308471,f,116.197882569395,f,test,1.0,,,
,p5cd_ad,108,409564,0.0-6.0-1.3-0.87,f078aa2862041786868ef9f2ad23336df49386eb98fe8259951830bdf7c3dbfd,5c483772ec38be0001b1a482,"[184, 68, 253, 230, 240, 251, 128, 72, 182, 226, 158, 27, 69, 200, 163, 115, 65, 79, 246, 6, 127, 148, 126, 187, 17, 188, 42, 59, 108, 89, 207, 202]",5f16fbd265c0910180e6bc92,5c483772ec38be0001b1a482,5f170f1427a1960008252279,0.31,POshdjc,,,5.0,0.0,0.0,2099.327721836744,f,209.68727814033628,f,test,1.0,,,
,p5cd_ad,109,412594,0.0-6.0-1.3-0.88,f078aa2862041786868ef9f2ad23336df49386eb98fe8259951830bdf7c3dbfd,5c483772ec38be0001b1a482,"[184, 68, 253, 230, 240, 251, 128, 72, 182, 226, 158, 27, 69, 200, 163, 115, 65, 79, 246, 6, 127, 148, 126, 187, 17, 188, 42, 59, 108, 89, 207, 202]",5f16fbd265c0910180e6bc92,5c483772ec38be0001b1a482,5f170f1427a1960008252279,0.31,POshdjc,,,5.0,0.0,1.0,2137.4711334356107,f,376.15886656567454,f,test,1.0,,,
,p5cd_ad,110,415208,0.0-6.0-1.3-0.89,f078aa2862041786868ef9f2ad23336df49386eb98fe8259951830bdf7c3dbfd,5c483772ec38be0001b1a482,"[184, 68, 253, 230, 240, 251, 128, 72, 182, 226, 158, 27, 69, 200, 163, 115, 65, 79, 246, 6, 127, 148, 126, 187, 17, 188, 42, 59, 108, 89, 207, 202]",5f16fbd265c0910180e6bc92,5c483772ec38be0001b1a482,5f170f1427a1960008252279,0.31,POshdjc,,,9.0,0.0,0.0,1978.7185690365732,f,119.05143095646054,f,test,1.0,,,
,p5cd_ad,111,417673,0.0-6.0-1.3-0.90,f078aa2862041786868ef9f2ad23336df49386eb98fe8259951830bdf7c3dbfd,5c483772ec38be0001b1a482,"[184, 68, 253, 230, 240, 251, 128, 72, 182, 226, 158, 27, 69, 200, 163, 115, 65, 79, 246, 6, 127, 148, 126, 187, 17, 188, 42, 59, 108, 89, 207, 202]",5f16fbd265c0910180e6bc92,5c483772ec38be0001b1a482,5f170f1427a1960008252279,0.31,POshdjc,,,3.0,1.0,0.0,1867.8859725769144,j,79.28402745164931,j,test,1.0,,,
,p5cd_ad,112,420503,0.0-6.0-1.3-0.91,f078aa2862041786868ef9f2ad23336df49386eb98fe8259951830bdf7c3dbfd,5c483772ec38be0001b1a482,"[184, 68, 253, 230, 240, 251, 128, 72, 182, 226, 158, 27, 69, 200, 163, 115, 65, 79, 246, 6, 127, 148, 126, 187, 17, 188, 42, 59, 108, 89, 207, 202]",5f16fbd265c0910180e6bc92,5c483772ec38be0001b1a482,5f170f1427a1960008252279,0.31,POshdjc,,,5.0,1.0,0.0,1862.4794413917698,f,459.49055859819055,j,test,0.0,,,
,p5cd_ad,113,423400,0.0-6.0-1.3-0.92,f078aa2862041786868ef9f2ad23336df49386eb98fe8259951830bdf7c3dbfd,5c483772ec38be0001b1a482,"[184, 68, 253, 230, 240, 251, 128, 72, 182, 226, 158, 27, 69, 200, 163, 115, 65, 79, 246, 6, 127, 148, 126, 187, 17, 188, 42, 59, 108, 89, 207, 202]",5f16fbd265c0910180e6bc92,5c483772ec38be0001b1a482,5f170f1427a1960008252279,0.31,POshdjc,,,3.0,0.0,1.0,2112.6613897213247,f,278.7186102941632,f,test,1.0,,,
,p5cd_ad,114,425897,0.0-6.0-1.3-0.93,f078aa2862041786868ef9f2ad23336df49386eb98fe8259951830bdf7c3dbfd,5c483772ec38be0001b1a482,"[184, 68, 253, 230, 240, 251, 128, 72, 182, 226, 158, 27, 69, 200, 163, 115, 65, 79, 246, 6, 127, 148, 126, 187, 17, 188, 42, 59, 108, 89, 207, 202]",5f16fbd265c0910180e6bc92,5c483772ec38be0001b1a482,5f170f1427a1960008252279,0.31,POshdjc,,,3.0,1.0,1.0,1890.965288010193,j,90.82971198949963,j,test,1.0,,,
,p5cd_ad,115,428446,0.0-6.0-1.3-0.94,f078aa2862041786868ef9f2ad23336df49386eb98fe8259951830bdf7c3dbfd,5c483772ec38be0001b1a482,"[184, 68, 253, 230, 240, 251, 128, 72, 182, 226, 158, 27, 69, 200, 163, 115, 65, 79, 246, 6, 127, 148, 126, 187, 17, 188, 42, 59, 108, 89, 207, 202]",5f16fbd265c0910180e6bc92,5c483772ec38be0001b1a482,5f170f1427a1960008252279,0.31,POshdjc,,,1.0,0.0,0.0,1779.8465058440343,f,253.83349414914846,f,test,1.0,,,
,p5cd_ad,116,432126,0.0-6.0-1.3-0.95,f078aa2862041786868ef9f2ad23336df49386eb98fe8259951830bdf7c3dbfd,5c483772ec38be0001b1a482,"[184, 68, 253, 230, 240, 251, 128, 72, 182, 226, 158, 27, 69, 200, 163, 115, 65, 79, 246, 6, 127, 148, 126, 187, 17, 188, 42, 59, 108, 89, 207, 202]",5f16fbd265c0910180e6bc92,5c483772ec38be0001b1a482,5f170f1427a1960008252279,0.31,POshdjc,,,9.0,0.0,1.0,2725.6794747372624,f,438.0205252673477,f,test,1.0,,,
,p5Text,117,434616,0.0-6.0-2.3,f078aa2862041786868ef9f2ad23336df49386eb98fe8259951830bdf7c3dbfd,5c483772ec38be0001b1a482,"[184, 68, 253, 230, 240, 251, 128, 72, 182, 226, 158, 27, 69, 200, 163, 115, 65, 79, 246, 6, 127, 148, 126, 187, 17, 188, 42, 59, 108, 89, 207, 202]",5f16fbd265c0910180e6bc92,5c483772ec38be0001b1a482,5f170f1427a1960008252279,0.31,POshdjc,,,,,,,,,,,,,,
,survey-text,118,441594,0.0-7.0,f078aa2862041786868ef9f2ad23336df49386eb98fe8259951830bdf7c3dbfd,5c483772ec38be0001b1a482,"[184, 68, 253, 230, 240, 251, 128, 72, 182, 226, 158, 27, 69, 200, 163, 115, 65, 79, 246, 6, 127, 148, 126, 187, 17, 188, 42, 59, 108, 89, 207, 202]",5f16fbd265c0910180e6bc92,5c483772ec38be0001b1a482,5f170f1427a1960008252279,0.31,POshdjc,6969.874999980675,,,,,,,,,,,,,"{""worker_comments"":"" ""}"
,p5Text,119,448169,0.0-8.0,f078aa2862041786868ef9f2ad23336df49386eb98fe8259951830bdf7c3dbfd,5c483772ec38be0001b1a482,"[184, 68, 253, 230, 240, 251, 128, 72, 182, 226, 158, 27, 69, 200, 163, 115, 65, 79, 246, 6, 127, 148, 126, 187, 17, 188, 42, 59, 108, 89, 207, 202]",5f16fbd265c0910180e6bc92,5c483772ec38be0001b1a482,5f170f1427a1960008252279,0.31,POshdjc,,,,,,,,,,,,,,
1.0,fullscreen,0,3401,0.0-0.0,f078aa2862041786868ef9f2ad23336df49386eb98fe8259951830bdf7c3dbfd,5e687fc5651f7d1259eac113,"[93, 179, 23, 230, 181, 7, 244, 75, 253, 178, 97, 251, 108, 79, 62, 178, 238, 213, 132, 118, 61, 240, 11, 86, 96, 72, 220, 99, 94, 29, 165, 18]",5f16fbd265c0910180e6bc92,5e687fc5651f7d1259eac113,5f170b62929269000a02a06a,0.27,zenith298,,,,,,,,,,,,,,
,external-html,1,24360,0.0-1.0,f078aa2862041786868ef9f2ad23336df49386eb98fe8259951830bdf7c3dbfd,5e687fc5651f7d1259eac113,"[93, 179, 23, 230, 181, 7, 244, 75, 253, 178, 97, 251, 108, 79, 62, 178, 238, 213, 132, 118, 61, 240, 11, 86, 96, 72, 220, 99, 94, 29, 165, 18]",5f16fbd265c0910180e6bc92,5e687fc5651f7d1259eac113,5f170b62929269000a02a06a,0.27,zenith298,20817.0,nickname.html,,,,,,,,,,,,
,p5Text,2,32093,0.0-2.0,f078aa2862041786868ef9f2ad23336df49386eb98fe8259951830bdf7c3dbfd,5e687fc5651f7d1259eac113,"[93, 179, 23, 230, 181, 7, 244, 75, 253, 178, 97, 251, 108, 79, 62, 178, 238, 213, 132, 118, 61, 240, 11, 86, 96, 72, 220, 99, 94, 29, 165, 18]",5f16fbd265c0910180e6bc92,5e687fc5651f7d1259eac113,5f170b62929269000a02a06a,0.27,zenith298,,,,,,,,,,,,,,
,p5Text,3,41689,0.0-3.0-0.0,f078aa2862041786868ef9f2ad23336df49386eb98fe8259951830bdf7c3dbfd,5e687fc5651f7d1259eac113,"[93, 179, 23, 230, 181, 7, 244, 75, 253, 178, 97, 251, 108, 79, 62, 178, 238, 213, 132, 118, 61, 240, 11, 86, 96, 72, 220, 99, 94, 29, 165, 18]",5f16fbd265c0910180e6bc92,5e687fc5651f7d1259eac113,5f170b62929269000a02a06a,0.27,zenith298,,,,,,,,,,,,,,
,p5cd_ad,4,50722,0.0-3.0-1.0-0.0,f078aa2862041786868ef9f2ad23336df49386eb98fe8259951830bdf7c3dbfd,5e687fc5651f7d1259eac113,"[93, 179, 23, 230, 181, 7, 244, 75, 253, 178, 97, 251, 108, 79, 62, 178, 238, 213, 132, 118, 61, 240, 11, 86, 96, 72, 220, 99, 94, 29, 165, 18]",5f16fbd265c0910180e6bc92,5e687fc5651f7d1259eac113,5f170b62929269000a02a06a,0.27,zenith298,,,3.0,0.0,1.0,8203.850020421669,f,296.1499795783311,f,practice,1.0,,,
,html-keyboard-response,5,51731,0.0-3.0-1.0-1.0,f078aa2862041786868ef9f2ad23336df49386eb98fe8259951830bdf7c3dbfd,5e687fc5651f7d1259eac113,"[93, 179, 23, 230, 181, 7, 244, 75, 253, 178, 97, 251, 108, 79, 62, 178, 238, 213, 132, 118, 61, 240, 11, 86, 96, 72, 220, 99, 94, 29, 165, 18]",5f16fbd265c0910180e6bc92,5e687fc5651f7d1259eac113,5f170b62929269000a02a06a,0.27,zenith298,,,,,,,,,,,,"<div style=""width:150px;height:56px;font-size:30px;text-align:center;"">correct!</div>",,
,p5cd_ad,6,55408,0.0-3.0-1.0-0.1,f078aa2862041786868ef9f2ad23336df49386eb98fe8259951830bdf7c3dbfd,5e687fc5651f7d1259eac113,"[93, 179, 23, 230, 181, 7, 244, 75, 253, 178, 97, 251, 108, 79, 62, 178, 238, 213, 132, 118, 61, 240, 11, 86, 96, 72, 220, 99, 94, 29, 165, 18]",5f16fbd265c0910180e6bc92,5e687fc5651f7d1259eac113,5f170b62929269000a02a06a,0.27,zenith298,,,3.0,1.0,0.0,2947.890718560666,f,202.10928143933415,j,practice,0.0,,,
,html-keyboard-response,7,56921,0.0-3.0-1.0-1.1,f078aa2862041786868ef9f2ad23336df49386eb98fe8259951830bdf7c3dbfd,5e687fc5651f7d1259eac113,"[93, 179, 23, 230, 181, 7, 244, 75, 253, 178, 97, 251, 108, 79, 62, 178, 238, 213, 132, 118, 61, 240, 11, 86, 96, 72, 220, 99, 94, 29, 165, 18]",5f16fbd265c0910180e6bc92,5e687fc5651f7d1259eac113,5f170b62929269000a02a06a,0.27,zenith298,,,,,,,,,,,,"<div style=""width:150px;height:56px;border:0px;font-size:30px;text-align:center"">wrong.</div>",,
,p5cd_ad,8,59175,0.0-3.0-1.0-0.2,f078aa2862041786868ef9f2ad23336df49386eb98fe8259951830bdf7c3dbfd,5e687fc5651f7d1259eac113,"[93, 179, 23, 230, 181, 7, 244, 75, 253, 178, 97, 251, 108, 79, 62, 178, 238, 213, 132, 118, 61, 240, 11, 86, 96, 72, 220, 99, 94, 29, 165, 18]",5f16fbd265c0910180e6bc92,5e687fc5651f7d1259eac113,5f170b62929269000a02a06a,0.27,zenith298,,,3.0,0.0,0.0,1427.8611833490431,j,294.13881665095687,f,practice,0.0,,,
,html-keyboard-response,9,60680,0.0-3.0-1.0-1.2,f078aa2862041786868ef9f2ad23336df49386eb98fe8259951830bdf7c3dbfd,5e687fc5651f7d1259eac113,"[93, 179, 23, 230, 181, 7, 244, 75, 253, 178, 97, 251, 108, 79, 62, 178, 238, 213, 132, 118, 61, 240, 11, 86, 96, 72, 220, 99, 94, 29, 165, 18]",5f16fbd265c0910180e6bc92,5e687fc5651f7d1259eac113,5f170b62929269000a02a06a,0.27,zenith298,,,,,,,,,,,,"<div style=""width:150px;height:56px;border:0px;font-size:30px;text-align:center"">wrong.</div>",,
,p5cd_ad,10,63970,0.0-3.0-1.0-0.3,f078aa2862041786868ef9f2ad23336df49386eb98fe8259951830bdf7c3dbfd,5e687fc5651f7d1259eac113,"[93, 179, 23, 230, 181, 7, 244, 75, 253, 178, 97, 251, 108, 79, 62, 178, 238, 213, 132, 118, 61, 240, 11, 86, 96, 72, 220, 99, 94, 29, 165, 18]",5f16fbd265c0910180e6bc92,5e687fc5651f7d1259eac113,5f170b62929269000a02a06a,0.27,zenith298,,,3.0,1.0,1.0,2346.7500755749643,f,408.2499244250357,j,practice,0.0,,,
,html-keyboard-response,11,65482,0.0-3.0-1.0-1.3,f078aa2862041786868ef9f2ad23336df49386eb98fe8259951830bdf7c3dbfd,5e687fc5651f7d1259eac113,"[93, 179, 23, 230, 181, 7, 244, 75, 253, 178, 97, 251, 108, 79, 62, 178, 238, 213, 132, 118, 61, 240, 11, 86, 96, 72, 220, 99, 94, 29, 165, 18]",5f16fbd265c0910180e6bc92,5e687fc5651f7d1259eac113,5f170b62929269000a02a06a,0.27,zenith298,,,,,,,,,,,,"<div style=""width:150px;height:56px;border:0px;font-size:30px;text-align:center"">wrong.</div>",,
,p5Text,12,90135,0.0-3.1-0.1,f078aa2862041786868ef9f2ad23336df49386eb98fe8259951830bdf7c3dbfd,5e687fc5651f7d1259eac113,"[93, 179, 23, 230, 181, 7, 244, 75, 253, 178, 97, 251, 108, 79, 62, 178, 238, 213, 132, 118, 61, 240, 11, 86, 96, 72, 220, 99, 94, 29, 165, 18]",5f16fbd265c0910180e6bc92,5e687fc5651f7d1259eac113,5f170b62929269000a02a06a,0.27,zenith298,,,,,,,,,,,,,,
,p5cd_ad,13,95503,0.0-3.1-1.1-0.4,f078aa2862041786868ef9f2ad23336df49386eb98fe8259951830bdf7c3dbfd,5e687fc5651f7d1259eac113,"[93, 179, 23, 230, 181, 7, 244, 75, 253, 178, 97, 251, 108, 79, 62, 178, 238, 213, 132, 118, 61, 240, 11, 86, 96, 72, 220, 99, 94, 29, 165, 18]",5f16fbd265c0910180e6bc92,5e687fc5651f7d1259eac113,5f170b62929269000a02a06a,0.27,zenith298,,,3.0,1.0,1.0,4555.373000707477,f,289.62699929252267,j,practice,0.0,,,
,html-keyboard-response,14,97020,0.0-3.1-1.1-1.4,f078aa2862041786868ef9f2ad23336df49386eb98fe8259951830bdf7c3dbfd,5e687fc5651f7d1259eac113,"[93, 179, 23, 230, 181, 7, 244, 75, 253, 178, 97, 251, 108, 79, 62, 178, 238, 213, 132, 118, 61, 240, 11, 86, 96, 72, 220, 99, 94, 29, 165, 18]",5f16fbd265c0910180e6bc92,5e687fc5651f7d1259eac113,5f170b62929269000a02a06a,0.27,zenith298,1271.0,,,,,,,,,,,"<div style=""width:150px;height:56px;border:0px;font-size:30px;text-align:center"">wrong.</div>",70.0,
,p5cd_ad,15,107650,0.0-3.1-1.1-0.5,f078aa2862041786868ef9f2ad23336df49386eb98fe8259951830bdf7c3dbfd,5e687fc5651f7d1259eac113,"[93, 179, 23, 230, 181, 7, 244, 75, 253, 178, 97, 251, 108, 79, 62, 178, 238, 213, 132, 118, 61, 240, 11, 86, 96, 72, 220, 99, 94, 29, 165, 18]",5f16fbd265c0910180e6bc92,5e687fc5651f7d1259eac113,5f170b62929269000a02a06a,0.27,zenith298,,,3.0,0.0,0.0,9799.697981441393,f,308.3020185586065,f,practice,1.0,,,
,html-keyboard-response,16,108672,0.0-3.1-1.1-1.5,f078aa2862041786868ef9f2ad23336df49386eb98fe8259951830bdf7c3dbfd,5e687fc5651f7d1259eac113,"[93, 179, 23, 230, 181, 7, 244, 75, 253, 178, 97, 251, 108, 79, 62, 178, 238, 213, 132, 118, 61, 240, 11, 86, 96, 72, 220, 99, 94, 29, 165, 18]",5f16fbd265c0910180e6bc92,5e687fc5651f7d1259eac113,5f170b62929269000a02a06a,0.27,zenith298,,,,,,,,,,,,"<div style=""width:150px;height:56px;font-size:30px;text-align:center;"">correct!</div>",,
,p5cd_ad,17,114895,0.0-3.1-1.1-0.6,f078aa2862041786868ef9f2ad23336df49386eb98fe8259951830bdf7c3dbfd,5e687fc5651f7d1259eac113,"[93, 179, 23, 230, 181, 7, 244, 75, 253, 178, 97, 251, 108, 79, 62, 178, 238, 213, 132, 118, 61, 240, 11, 86, 96, 72, 220, 99, 94, 29, 165, 18]",5f16fbd265c0910180e6bc92,5e687fc5651f7d1259eac113,5f170b62929269000a02a06a,0.27,zenith298,,,3.0,0.0,1.0,5316.944904025644,f,377.05509597435594,f,practice,1.0,,,
,html-keyboard-response,18,115912,0.0-3.1-1.1-1.6,f078aa2862041786868ef9f2ad23336df49386eb98fe8259951830bdf7c3dbfd,5e687fc5651f7d1259eac113,"[93, 179, 23, 230, 181, 7, 244, 75, 253, 178, 97, 251, 108, 79, 62, 178, 238, 213, 132, 118, 61, 240, 11, 86, 96, 72, 220, 99, 94, 29, 165, 18]",5f16fbd265c0910180e6bc92,5e687fc5651f7d1259eac113,5f170b62929269000a02a06a,0.27,zenith298,,,,,,,,,,,,"<div style=""width:150px;height:56px;font-size:30px;text-align:center;"">correct!</div>",,
,p5cd_ad,19,120224,0.0-3.1-1.1-0.7,f078aa2862041786868ef9f2ad23336df49386eb98fe8259951830bdf7c3dbfd,5e687fc5651f7d1259eac113,"[93, 179, 23, 230, 181, 7, 244, 75, 253, 178, 97, 251, 108, 79, 62, 178, 238, 213, 132, 118, 61, 240, 11, 86, 96, 72, 220, 99, 94, 29, 165, 18]",5f16fbd265c0910180e6bc92,5e687fc5651f7d1259eac113,5f170b62929269000a02a06a,0.27,zenith298,,,3.0,1.0,0.0,3677.4046633550897,j,105.59533664491028,j,practice,1.0,,,
,html-keyboard-response,20,121230,0.0-3.1-1.1-1.7,f078aa2862041786868ef9f2ad23336df49386eb98fe8259951830bdf7c3dbfd,5e687fc5651f7d1259eac113,"[93, 179, 23, 230, 181, 7, 244, 75, 253, 178, 97, 251, 108, 79, 62, 178, 238, 213, 132, 118, 61, 240, 11, 86, 96, 72, 220, 99, 94, 29, 165, 18]",5f16fbd265c0910180e6bc92,5e687fc5651f7d1259eac113,5f170b62929269000a02a06a,0.27,zenith298,,,,,,,,,,,,"<div style=""width:150px;height:56px;font-size:30px;text-align:center;"">correct!</div>",,
,p5Text,21,124517,0.0-3.2-0.2,f078aa2862041786868ef9f2ad23336df49386eb98fe8259951830bdf7c3dbfd,5e687fc5651f7d1259eac113,"[93, 179, 23, 230, 181, 7, 244, 75, 253, 178, 97, 251, 108, 79, 62, 178, 238, 213, 132, 118, 61, 240, 11, 86, 96, 72, 220, 99, 94, 29, 165, 18]",5f16fbd265c0910180e6bc92,5e687fc5651f7d1259eac113,5f170b62929269000a02a06a,0.27,zenith298,,,,,,,,,,,,,,
,p5cd_ad,22,127958,0.0-3.2-1.2-0.8,f078aa2862041786868ef9f2ad23336df49386eb98fe8259951830bdf7c3dbfd,5e687fc5651f7d1259eac113,"[93, 179, 23, 230, 181, 7, 244, 75, 253, 178, 97, 251, 108, 79, 62, 178, 238, 213, 132, 118, 61, 240, 11, 86, 96, 72, 220, 99, 94, 29, 165, 18]",5f16fbd265c0910180e6bc92,5e687fc5651f7d1259eac113,5f170b62929269000a02a06a,0.27,zenith298,,,3.0,0.0,0.0,2708.84213936422,f,217.1578606357798,f,practice,1.0,,,
,html-keyboard-response,23,128971,0.0-3.2-1.2-1.8,f078aa2862041786868ef9f2ad23336df49386eb98fe8259951830bdf7c3dbfd,5e687fc5651f7d1259eac113,"[93, 179, 23, 230, 181, 7, 244, 75, 253, 178, 97, 251, 108, 79, 62, 178, 238, 213, 132, 118, 61, 240, 11, 86, 96, 72, 220, 99, 94, 29, 165, 18]",5f16fbd265c0910180e6bc92,5e687fc5651f7d1259eac113,5f170b62929269000a02a06a,0.27,zenith298,,,,,,,,,,,,"<div style=""width:150px;height:56px;font-size:30px;text-align:center;"">correct!</div>",,
,p5cd_ad,24,131557,0.0-3.2-1.2-0.9,f078aa2862041786868ef9f2ad23336df49386eb98fe8259951830bdf7c3dbfd,5e687fc5651f7d1259eac113,"[93, 179, 23, 230, 181, 7, 244, 75, 253, 178, 97, 251, 108, 79, 62, 178, 238, 213, 132, 118, 61, 240, 11, 86, 96, 72, 220, 99, 94, 29, 165, 18]",5f16fbd265c0910180e6bc92,5e687fc5651f7d1259eac113,5f170b62929269000a02a06a,0.27,zenith298,,,3.0,1.0,0.0,1771.1737558841705,j,289.82624411582947,j,practice,1.0,,,
,html-keyboard-response,25,132561,0.0-3.2-1.2-1.9,f078aa2862041786868ef9f2ad23336df49386eb98fe8259951830bdf7c3dbfd,5e687fc5651f7d1259eac113,"[93, 179, 23, 230, 181, 7, 244, 75, 253, 178, 97, 251, 108, 79, 62, 178, 238, 213, 132, 118, 61, 240, 11, 86, 96, 72, 220, 99, 94, 29, 165, 18]",5f16fbd265c0910180e6bc92,5e687fc5651f7d1259eac113,5f170b62929269000a02a06a,0.27,zenith298,,,,,,,,,,,,"<div style=""width:150px;height:56px;font-size:30px;text-align:center;"">correct!</div>",,
,p5cd_ad,26,135970,0.0-3.2-1.2-0.10,f078aa2862041786868ef9f2ad23336df49386eb98fe8259951830bdf7c3dbfd,5e687fc5651f7d1259eac113,"[93, 179, 23, 230, 181, 7, 244, 75, 253, 178, 97, 251, 108, 79, 62, 178, 238, 213, 132, 118, 61, 240, 11, 86, 96, 72, 220, 99, 94, 29, 165, 18]",5f16fbd265c0910180e6bc92,5e687fc5651f7d1259eac113,5f170b62929269000a02a06a,0.27,zenith298,,,3.0,1.0,1.0,2465.6414969787,f,413.35850302129984,j,practice,0.0,,,
,html-keyboard-response,27,137491,0.0-3.2-1.2-1.10,f078aa2862041786868ef9f2ad23336df49386eb98fe8259951830bdf7c3dbfd,5e687fc5651f7d1259eac113,"[93, 179, 23, 230, 181, 7, 244, 75, 253, 178, 97, 251, 108, 79, 62, 178, 238, 213, 132, 118, 61, 240, 11, 86, 96, 72, 220, 99, 94, 29, 165, 18]",5f16fbd265c0910180e6bc92,5e687fc5651f7d1259eac113,5f170b62929269000a02a06a,0.27,zenith298,,,,,,,,,,,,"<div style=""width:150px;height:56px;border:0px;font-size:30px;text-align:center"">wrong.</div>",,
,p5cd_ad,28,141654,0.0-3.2-1.2-0.11,f078aa2862041786868ef9f2ad23336df49386eb98fe8259951830bdf7c3dbfd,5e687fc5651f7d1259eac113,"[93, 179, 23, 230, 181, 7, 244, 75, 253, 178, 97, 251, 108, 79, 62, 178, 238, 213, 132, 118, 61, 240, 11, 86, 96, 72, 220, 99, 94, 29, 165, 18]",5f16fbd265c0910180e6bc92,5e687fc5651f7d1259eac113,5f170b62929269000a02a06a,0.27,zenith298,,,3.0,0.0,1.0,3625.898922392167,f,5.101077607832849,f,practice,1.0,,,
,html-keyboard-response,29,142660,0.0-3.2-1.2-1.11,f078aa2862041786868ef9f2ad23336df49386eb98fe8259951830bdf7c3dbfd,5e687fc5651f7d1259eac113,"[93, 179, 23, 230, 181, 7, 244, 75, 253, 178, 97, 251, 108, 79, 62, 178, 238, 213, 132, 118, 61, 240, 11, 86, 96, 72, 220, 99, 94, 29, 165, 18]",5f16fbd265c0910180e6bc92,5e687fc5651f7d1259eac113,5f170b62929269000a02a06a,0.27,zenith298,,,,,,,,,,,,"<div style=""width:150px;height:56px;font-size:30px;text-align:center;"">correct!</div>",,
,p5Text,30,144293,0.0-3.3-0.3,f078aa2862041786868ef9f2ad23336df49386eb98fe8259951830bdf7c3dbfd,5e687fc5651f7d1259eac113,"[93, 179, 23, 230, 181, 7, 244, 75, 253, 178, 97, 251, 108, 79, 62, 178, 238, 213, 132, 118, 61, 240, 11, 86, 96, 72, 220, 99, 94, 29, 165, 18]",5f16fbd265c0910180e6bc92,5e687fc5651f7d1259eac113,5f170b62929269000a02a06a,0.27,zenith298,,,,,,,,,,,,,,
,p5cd_ad,31,146482,0.0-3.3-1.3-0.12,f078aa2862041786868ef9f2ad23336df49386eb98fe8259951830bdf7c3dbfd,5e687fc5651f7d1259eac113,"[93, 179, 23, 230, 181, 7, 244, 75, 253, 178, 97, 251, 108, 79, 62, 178, 238, 213, 132, 118, 61, 240, 11, 86, 96, 72, 220, 99, 94, 29, 165, 18]",5f16fbd265c0910180e6bc92,5e687fc5651f7d1259eac113,5f170b62929269000a02a06a,0.27,zenith298,,,3.0,1.0,0.0,1633.803023035638,f,30.196976964361966,j,practice,0.0,,,
,html-keyboard-response,32,148001,0.0-3.3-1.3-1.12,f078aa2862041786868ef9f2ad23336df49386eb98fe8259951830bdf7c3dbfd,5e687fc5651f7d1259eac113,"[93, 179, 23, 230, 181, 7, 244, 75, 253, 178, 97, 251, 108, 79, 62, 178, 238, 213, 132, 118, 61, 240, 11, 86, 96, 72, 220, 99, 94, 29, 165, 18]",5f16fbd265c0910180e6bc92,5e687fc5651f7d1259eac113,5f170b62929269000a02a06a,0.27,zenith298,,,,,,,,,,,,"<div style=""width:150px;height:56px;border:0px;font-size:30px;text-align:center"">wrong.</div>",,
,p5cd_ad,33,151545,0.0-3.3-1.3-0.13,f078aa2862041786868ef9f2ad23336df49386eb98fe8259951830bdf7c3dbfd,5e687fc5651f7d1259eac113,"[93, 179, 23, 230, 181, 7, 244, 75, 253, 178, 97, 251, 108, 79, 62, 178, 238, 213, 132, 118, 61, 240, 11, 86, 96, 72, 220, 99, 94, 29, 165, 18]",5f16fbd265c0910180e6bc92,5e687fc5651f7d1259eac113,5f170b62929269000a02a06a,0.27,zenith298,,,3.0,0.0,1.0,2570.1660063853487,f,450.83399361465126,f,practice,1.0,,,
,html-keyboard-response,34,152555,0.0-3.3-1.3-1.13,f078aa2862041786868ef9f2ad23336df49386eb98fe8259951830bdf7c3dbfd,5e687fc5651f7d1259eac113,"[93, 179, 23, 230, 181, 7, 244, 75, 253, 178, 97, 251, 108, 79, 62, 178, 238, 213, 132, 118, 61, 240, 11, 86, 96, 72, 220, 99, 94, 29, 165, 18]",5f16fbd265c0910180e6bc92,5e687fc5651f7d1259eac113,5f170b62929269000a02a06a,0.27,zenith298,,,,,,,,,,,,"<div style=""width:150px;height:56px;font-size:30px;text-align:center;"">correct!</div>",,
,p5cd_ad,35,155695,0.0-3.3-1.3-0.14,f078aa2862041786868ef9f2ad23336df49386eb98fe8259951830bdf7c3dbfd,5e687fc5651f7d1259eac113,"[93, 179, 23, 230, 181, 7, 244, 75, 253, 178, 97, 251, 108, 79, 62, 178, 238, 213, 132, 118, 61, 240, 11, 86, 96, 72, 220, 99, 94, 29, 165, 18]",5f16fbd265c0910180e6bc92,5e687fc5651f7d1259eac113,5f170b62929269000a02a06a,0.27,zenith298,,,3.0,0.0,0.0,2171.4467662265524,f,441.5532337734476,f,practice,1.0,,,
,html-keyboard-response,36,156700,0.0-3.3-1.3-1.14,f078aa2862041786868ef9f2ad23336df49386eb98fe8259951830bdf7c3dbfd,5e687fc5651f7d1259eac113,"[93, 179, 23, 230, 181, 7, 244, 75, 253, 178, 97, 251, 108, 79, 62, 178, 238, 213, 132, 118, 61, 240, 11, 86, 96, 72, 220, 99, 94, 29, 165, 18]",5f16fbd265c0910180e6bc92,5e687fc5651f7d1259eac113,5f170b62929269000a02a06a,0.27,zenith298,,,,,,,,,,,,"<div style=""width:150px;height:56px;font-size:30px;text-align:center;"">correct!</div>",,
,p5cd_ad,37,159705,0.0-3.3-1.3-0.15,f078aa2862041786868ef9f2ad23336df49386eb98fe8259951830bdf7c3dbfd,5e687fc5651f7d1259eac113,"[93, 179, 23, 230, 181, 7, 244, 75, 253, 178, 97, 251, 108, 79, 62, 178, 238, 213, 132, 118, 61, 240, 11, 86, 96, 72, 220, 99, 94, 29, 165, 18]",5f16fbd265c0910180e6bc92,5e687fc5651f7d1259eac113,5f170b62929269000a02a06a,0.27,zenith298,,,3.0,1.0,1.0,2296.8707313537598,j,177.12926864624023,j,practice,1.0,,,
,html-keyboard-response,38,160710,0.0-3.3-1.3-1.15,f078aa2862041786868ef9f2ad23336df49386eb98fe8259951830bdf7c3dbfd,5e687fc5651f7d1259eac113,"[93, 179, 23, 230, 181, 7, 244, 75, 253, 178, 97, 251, 108, 79, 62, 178, 238, 213, 132, 118, 61, 240, 11, 86, 96, 72, 220, 99, 94, 29, 165, 18]",5f16fbd265c0910180e6bc92,5e687fc5651f7d1259eac113,5f170b62929269000a02a06a,0.27,zenith298,,,,,,,,,,,,"<div style=""width:150px;height:56px;font-size:30px;text-align:center;"">correct!</div>",,
,p5Text,39,161592,0.0-3.4-0.4,f078aa2862041786868ef9f2ad23336df49386eb98fe8259951830bdf7c3dbfd,5e687fc5651f7d1259eac113,"[93, 179, 23, 230, 181, 7, 244, 75, 253, 178, 97, 251, 108, 79, 62, 178, 238, 213, 132, 118, 61, 240, 11, 86, 96, 72, 220, 99, 94, 29, 165, 18]",5f16fbd265c0910180e6bc92,5e687fc5651f7d1259eac113,5f170b62929269000a02a06a,0.27,zenith298,,,,,,,,,,,,,,
,p5cd_ad,40,164356,0.0-3.4-1.4-0.16,f078aa2862041786868ef9f2ad23336df49386eb98fe8259951830bdf7c3dbfd,5e687fc5651f7d1259eac113,"[93, 179, 23, 230, 181, 7, 244, 75, 253, 178, 97, 251, 108, 79, 62, 178, 238, 213, 132, 118, 61, 240, 11, 86, 96, 72, 220, 99, 94, 29, 165, 18]",5f16fbd265c0910180e6bc92,5e687fc5651f7d1259eac113,5f170b62929269000a02a06a,0.27,zenith298,,,3.0,1.0,0.0,1990.0908537982032,j,251.90914620179683,j,practice,1.0,,,
,html-keyboard-response,41,165371,0.0-3.4-1.4-1.16,f078aa2862041786868ef9f2ad23336df49386eb98fe8259951830bdf7c3dbfd,5e687fc5651f7d1259eac113,"[93, 179, 23, 230, 181, 7, 244, 75, 253, 178, 97, 251, 108, 79, 62, 178, 238, 213, 132, 118, 61, 240, 11, 86, 96, 72, 220, 99, 94, 29, 165, 18]",5f16fbd265c0910180e6bc92,5e687fc5651f7d1259eac113,5f170b62929269000a02a06a,0.27,zenith298,,,,,,,,,,,,"<div style=""width:150px;height:56px;font-size:30px;text-align:center;"">correct!</div>",,
,p5cd_ad,42,168274,0.0-3.4-1.4-0.17,f078aa2862041786868ef9f2ad23336df49386eb98fe8259951830bdf7c3dbfd,5e687fc5651f7d1259eac113,"[93, 179, 23, 230, 181, 7, 244, 75, 253, 178, 97, 251, 108, 79, 62, 178, 238, 213, 132, 118, 61, 240, 11, 86, 96, 72, 220, 99, 94, 29, 165, 18]",5f16fbd265c0910180e6bc92,5e687fc5651f7d1259eac113,5f170b62929269000a02a06a,0.27,zenith298,,,3.0,0.0,1.0,1935.4160102512687,f,443.58398974873126,f,practice,1.0,,,
,html-keyboard-response,43,169290,0.0-3.4-1.4-1.17,f078aa2862041786868ef9f2ad23336df49386eb98fe8259951830bdf7c3dbfd,5e687fc5651f7d1259eac113,"[93, 179, 23, 230, 181, 7, 244, 75, 253, 178, 97, 251, 108, 79, 62, 178, 238, 213, 132, 118, 61, 240, 11, 86, 96, 72, 220, 99, 94, 29, 165, 18]",5f16fbd265c0910180e6bc92,5e687fc5651f7d1259eac113,5f170b62929269000a02a06a,0.27,zenith298,,,,,,,,,,,,"<div style=""width:150px;height:56px;font-size:30px;text-align:center;"">correct!</div>",,
,p5cd_ad,44,171988,0.0-3.4-1.4-0.18,f078aa2862041786868ef9f2ad23336df49386eb98fe8259951830bdf7c3dbfd,5e687fc5651f7d1259eac113,"[93, 179, 23, 230, 181, 7, 244, 75, 253, 178, 97, 251, 108, 79, 62, 178, 238, 213, 132, 118, 61, 240, 11, 86, 96, 72, 220, 99, 94, 29, 165, 18]",5f16fbd265c0910180e6bc92,5e687fc5651f7d1259eac113,5f170b62929269000a02a06a,0.27,zenith298,,,3.0,0.0,0.0,1796.5682260748,f,372.4317739252001,f,practice,1.0,,,
,html-keyboard-response,45,172991,0.0-3.4-1.4-1.18,f078aa2862041786868ef9f2ad23336df49386eb98fe8259951830bdf7c3dbfd,5e687fc5651f7d1259eac113,"[93, 179, 23, 230, 181, 7, 244, 75, 253, 178, 97, 251, 108, 79, 62, 178, 238, 213, 132, 118, 61, 240, 11, 86, 96, 72, 220, 99, 94, 29, 165, 18]",5f16fbd265c0910180e6bc92,5e687fc5651f7d1259eac113,5f170b62929269000a02a06a,0.27,zenith298,,,,,,,,,,,,"<div style=""width:150px;height:56px;font-size:30px;text-align:center;"">correct!</div>",,
,p5cd_ad,46,175076,0.0-3.4-1.4-0.19,f078aa2862041786868ef9f2ad23336df49386eb98fe8259951830bdf7c3dbfd,5e687fc5651f7d1259eac113,"[93, 179, 23, 230, 181, 7, 244, 75, 253, 178, 97, 251, 108, 79, 62, 178, 238, 213, 132, 118, 61, 240, 11, 86, 96, 72, 220, 99, 94, 29, 165, 18]",5f16fbd265c0910180e6bc92,5e687fc5651f7d1259eac113,5f170b62929269000a02a06a,0.27,zenith298,,,3.0,1.0,1.0,1519.5515844151378,f,43.44841558486223,j,practice,0.0,,,
,html-keyboard-response,47,176586,0.0-3.4-1.4-1.19,f078aa2862041786868ef9f2ad23336df49386eb98fe8259951830bdf7c3dbfd,5e687fc5651f7d1259eac113,"[93, 179, 23, 230, 181, 7, 244, 75, 253, 178, 97, 251, 108, 79, 62, 178, 238, 213, 132, 118, 61, 240, 11, 86, 96, 72, 220, 99, 94, 29, 165, 18]",5f16fbd265c0910180e6bc92,5e687fc5651f7d1259eac113,5f170b62929269000a02a06a,0.27,zenith298,,,,,,,,,,,,"<div style=""width:150px;height:56px;border:0px;font-size:30px;text-align:center"">wrong.</div>",,
,p5Text,48,177407,0.0-3.5-0.5,f078aa2862041786868ef9f2ad23336df49386eb98fe8259951830bdf7c3dbfd,5e687fc5651f7d1259eac113,"[93, 179, 23, 230, 181, 7, 244, 75, 253, 178, 97, 251, 108, 79, 62, 178, 238, 213, 132, 118, 61, 240, 11, 86, 96, 72, 220, 99, 94, 29, 165, 18]",5f16fbd265c0910180e6bc92,5e687fc5651f7d1259eac113,5f170b62929269000a02a06a,0.27,zenith298,,,,,,,,,,,,,,
,p5cd_ad,49,180098,0.0-3.5-1.5-0.20,f078aa2862041786868ef9f2ad23336df49386eb98fe8259951830bdf7c3dbfd,5e687fc5651f7d1259eac113,"[93, 179, 23, 230, 181, 7, 244, 75, 253, 178, 97, 251, 108, 79, 62, 178, 238, 213, 132, 118, 61, 240, 11, 86, 96, 72, 220, 99, 94, 29, 165, 18]",5f16fbd265c0910180e6bc92,5e687fc5651f7d1259eac113,5f170b62929269000a02a06a,0.27,zenith298,,,3.0,1.0,0.0,1789.395053674467,f,371.6049463255331,j,practice,0.0,,,
,html-keyboard-response,50,181611,0.0-3.5-1.5-1.20,f078aa2862041786868ef9f2ad23336df49386eb98fe8259951830bdf7c3dbfd,5e687fc5651f7d1259eac113,"[93, 179, 23, 230, 181, 7, 244, 75, 253, 178, 97, 251, 108, 79, 62, 178, 238, 213, 132, 118, 61, 240, 11, 86, 96, 72, 220, 99, 94, 29, 165, 18]",5f16fbd265c0910180e6bc92,5e687fc5651f7d1259eac113,5f170b62929269000a02a06a,0.27,zenith298,,,,,,,,,,,,"<div style=""width:150px;height:56px;border:0px;font-size:30px;text-align:center"">wrong.</div>",,
,p5cd_ad,51,183910,0.0-3.5-1.5-0.21,f078aa2862041786868ef9f2ad23336df49386eb98fe8259951830bdf7c3dbfd,5e687fc5651f7d1259eac113,"[93, 179, 23, 230, 181, 7, 244, 75, 253, 178, 97, 251, 108, 79, 62, 178, 238, 213, 132, 118, 61, 240, 11, 86, 96, 72, 220, 99, 94, 29, 165, 18]",5f16fbd265c0910180e6bc92,5e687fc5651f7d1259eac113,5f170b62929269000a02a06a,0.27,zenith298,,,3.0,1.0,1.0,1747.1830928036943,j,23.816907196305692,j,practice,1.0,,,
,html-keyboard-response,52,184911,0.0-3.5-1.5-1.21,f078aa2862041786868ef9f2ad23336df49386eb98fe8259951830bdf7c3dbfd,5e687fc5651f7d1259eac113,"[93, 179, 23, 230, 181, 7, 244, 75, 253, 178, 97, 251, 108, 79, 62, 178, 238, 213, 132, 118, 61, 240, 11, 86, 96, 72, 220, 99, 94, 29, 165, 18]",5f16fbd265c0910180e6bc92,5e687fc5651f7d1259eac113,5f170b62929269000a02a06a,0.27,zenith298,,,,,,,,,,,,"<div style=""width:150px;height:56px;font-size:30px;text-align:center;"">correct!</div>",,
,p5cd_ad,53,187814,0.0-3.5-1.5-0.22,f078aa2862041786868ef9f2ad23336df49386eb98fe8259951830bdf7c3dbfd,5e687fc5651f7d1259eac113,"[93, 179, 23, 230, 181, 7, 244, 75, 253, 178, 97, 251, 108, 79, 62, 178, 238, 213, 132, 118, 61, 240, 11, 86, 96, 72, 220, 99, 94, 29, 165, 18]",5f16fbd265c0910180e6bc92,5e687fc5651f7d1259eac113,5f170b62929269000a02a06a,0.27,zenith298,,,3.0,0.0,0.0,2112.6249041622505,f,264.37509583774954,f,practice,1.0,,,
,html-keyboard-response,54,188823,0.0-3.5-1.5-1.22,f078aa2862041786868ef9f2ad23336df49386eb98fe8259951830bdf7c3dbfd,5e687fc5651f7d1259eac113,"[93, 179, 23, 230, 181, 7, 244, 75, 253, 178, 97, 251, 108, 79, 62, 178, 238, 213, 132, 118, 61, 240, 11, 86, 96, 72, 220, 99, 94, 29, 165, 18]",5f16fbd265c0910180e6bc92,5e687fc5651f7d1259eac113,5f170b62929269000a02a06a,0.27,zenith298,,,,,,,,,,,,"<div style=""width:150px;height:56px;font-size:30px;text-align:center;"">correct!</div>",,
,p5cd_ad,55,191228,0.0-3.5-1.5-0.23,f078aa2862041786868ef9f2ad23336df49386eb98fe8259951830bdf7c3dbfd,5e687fc5651f7d1259eac113,"[93, 179, 23, 230, 181, 7, 244, 75, 253, 178, 97, 251, 108, 79, 62, 178, 238, 213, 132, 118, 61, 240, 11, 86, 96, 72, 220, 99, 94, 29, 165, 18]",5f16fbd265c0910180e6bc92,5e687fc5651f7d1259eac113,5f170b62929269000a02a06a,0.27,zenith298,,,3.0,0.0,1.0,1803.0096398387104,f,76.99036016128957,f,practice,1.0,,,
,html-keyboard-response,56,192231,0.0-3.5-1.5-1.23,f078aa2862041786868ef9f2ad23336df49386eb98fe8259951830bdf7c3dbfd,5e687fc5651f7d1259eac113,"[93, 179, 23, 230, 181, 7, 244, 75, 253, 178, 97, 251, 108, 79, 62, 178, 238, 213, 132, 118, 61, 240, 11, 86, 96, 72, 220, 99, 94, 29, 165, 18]",5f16fbd265c0910180e6bc92,5e687fc5651f7d1259eac113,5f170b62929269000a02a06a,0.27,zenith298,,,,,,,,,,,,"<div style=""width:150px;height:56px;font-size:30px;text-align:center;"">correct!</div>",,
,p5Text,57,193119,0.0-3.6-0.6,f078aa2862041786868ef9f2ad23336df49386eb98fe8259951830bdf7c3dbfd,5e687fc5651f7d1259eac113,"[93, 179, 23, 230, 181, 7, 244, 75, 253, 178, 97, 251, 108, 79, 62, 178, 238, 213, 132, 118, 61, 240, 11, 86, 96, 72, 220, 99, 94, 29, 165, 18]",5f16fbd265c0910180e6bc92,5e687fc5651f7d1259eac113,5f170b62929269000a02a06a,0.27,zenith298,,,,,,,,,,,,,,
,p5cd_ad,58,195813,0.0-3.6-1.6-0.24,f078aa2862041786868ef9f2ad23336df49386eb98fe8259951830bdf7c3dbfd,5e687fc5651f7d1259eac113,"[93, 179, 23, 230, 181, 7, 244, 75, 253, 178, 97, 251, 108, 79, 62, 178, 238, 213, 132, 118, 61, 240, 11, 86, 96, 72, 220, 99, 94, 29, 165, 18]",5f16fbd265c0910180e6bc92,5e687fc5651f7d1259eac113,5f170b62929269000a02a06a,0.27,zenith298,,,3.0,1.0,1.0,1782.969885468483,j,382.03011453151703,j,practice,1.0,,,
,html-keyboard-response,59,196820,0.0-3.6-1.6-1.24,f078aa2862041786868ef9f2ad23336df49386eb98fe8259951830bdf7c3dbfd,5e687fc5651f7d1259eac113,"[93, 179, 23, 230, 181, 7, 244, 75, 253, 178, 97, 251, 108, 79, 62, 178, 238, 213, 132, 118, 61, 240, 11, 86, 96, 72, 220, 99, 94, 29, 165, 18]",5f16fbd265c0910180e6bc92,5e687fc5651f7d1259eac113,5f170b62929269000a02a06a,0.27,zenith298,,,,,,,,,,,,"<div style=""width:150px;height:56px;font-size:30px;text-align:center;"">correct!</div>",,
,p5cd_ad,60,199417,0.0-3.6-1.6-0.25,f078aa2862041786868ef9f2ad23336df49386eb98fe8259951830bdf7c3dbfd,5e687fc5651f7d1259eac113,"[93, 179, 23, 230, 181, 7, 244, 75, 253, 178, 97, 251, 108, 79, 62, 178, 238, 213, 132, 118, 61, 240, 11, 86, 96, 72, 220, 99, 94, 29, 165, 18]",5f16fbd265c0910180e6bc92,5e687fc5651f7d1259eac113,5f170b62929269000a02a06a,0.27,zenith298,,,3.0,0.0,0.0,1815.455925184302,f,260.54407481569797,f,practice,1.0,,,
,html-keyboard-response,61,200431,0.0-3.6-1.6-1.25,f078aa2862041786868ef9f2ad23336df49386eb98fe8259951830bdf7c3dbfd,5e687fc5651f7d1259eac113,"[93, 179, 23, 230, 181, 7, 244, 75, 253, 178, 97, 251, 108, 79, 62, 178, 238, 213, 132, 118, 61, 240, 11, 86, 96, 72, 220, 99, 94, 29, 165, 18]",5f16fbd265c0910180e6bc92,5e687fc5651f7d1259eac113,5f170b62929269000a02a06a,0.27,zenith298,,,,,,,,,,,,"<div style=""width:150px;height:56px;font-size:30px;text-align:center;"">correct!</div>",,
,p5cd_ad,62,202828,0.0-3.6-1.6-0.26,f078aa2862041786868ef9f2ad23336df49386eb98fe8259951830bdf7c3dbfd,5e687fc5651f7d1259eac113,"[93, 179, 23, 230, 181, 7, 244, 75, 253, 178, 97, 251, 108, 79, 62, 178, 238, 213, 132, 118, 61, 240, 11, 86, 96, 72, 220, 99, 94, 29, 165, 18]",5f16fbd265c0910180e6bc92,5e687fc5651f7d1259eac113,5f170b62929269000a02a06a,0.27,zenith298,,,3.0,1.0,0.0,1625.4925781013444,j,240.5074218986556,j,practice,1.0,,,
,html-keyboard-response,63,203831,0.0-3.6-1.6-1.26,f078aa2862041786868ef9f2ad23336df49386eb98fe8259951830bdf7c3dbfd,5e687fc5651f7d1259eac113,"[93, 179, 23, 230, 181, 7, 244, 75, 253, 178, 97, 251, 108, 79, 62, 178, 238, 213, 132, 118, 61, 240, 11, 86, 96, 72, 220, 99, 94, 29, 165, 18]",5f16fbd265c0910180e6bc92,5e687fc5651f7d1259eac113,5f170b62929269000a02a06a,0.27,zenith298,,,,,,,,,,,,"<div style=""width:150px;height:56px;font-size:30px;text-align:center;"">correct!</div>",,
,p5cd_ad,64,206090,0.0-3.6-1.6-0.27,f078aa2862041786868ef9f2ad23336df49386eb98fe8259951830bdf7c3dbfd,5e687fc5651f7d1259eac113,"[93, 179, 23, 230, 181, 7, 244, 75, 253, 178, 97, 251, 108, 79, 62, 178, 238, 213, 132, 118, 61, 240, 11, 86, 96, 72, 220, 99, 94, 29, 165, 18]",5f16fbd265c0910180e6bc92,5e687fc5651f7d1259eac113,5f170b62929269000a02a06a,0.27,zenith298,,,3.0,0.0,1.0,1485.9804609166458,f,256.0195390833542,f,practice,1.0,,,
,html-keyboard-response,65,207100,0.0-3.6-1.6-1.27,f078aa2862041786868ef9f2ad23336df49386eb98fe8259951830bdf7c3dbfd,5e687fc5651f7d1259eac113,"[93, 179, 23, 230, 181, 7, 244, 75, 253, 178, 97, 251, 108, 79, 62, 178, 238, 213, 132, 118, 61, 240, 11, 86, 96, 72, 220, 99, 94, 29, 165, 18]",5f16fbd265c0910180e6bc92,5e687fc5651f7d1259eac113,5f170b62929269000a02a06a,0.27,zenith298,,,,,,,,,,,,"<div style=""width:150px;height:56px;font-size:30px;text-align:center;"">correct!</div>",,
,p5Text,66,208539,0.0-4.0,f078aa2862041786868ef9f2ad23336df49386eb98fe8259951830bdf7c3dbfd,5e687fc5651f7d1259eac113,"[93, 179, 23, 230, 181, 7, 244, 75, 253, 178, 97, 251, 108, 79, 62, 178, 238, 213, 132, 118, 61, 240, 11, 86, 96, 72, 220, 99, 94, 29, 165, 18]",5f16fbd265c0910180e6bc92,5e687fc5651f7d1259eac113,5f170b62929269000a02a06a,0.27,zenith298,,,,,,,,,,,,,,
,p5Text,67,209681,0.0-5.0,f078aa2862041786868ef9f2ad23336df49386eb98fe8259951830bdf7c3dbfd,5e687fc5651f7d1259eac113,"[93, 179, 23, 230, 181, 7, 244, 75, 253, 178, 97, 251, 108, 79, 62, 178, 238, 213, 132, 118, 61, 240, 11, 86, 96, 72, 220, 99, 94, 29, 165, 18]",5f16fbd265c0910180e6bc92,5e687fc5651f7d1259eac113,5f170b62929269000a02a06a,0.27,zenith298,,,,,,,,,,,,,,
,p5Text,68,212366,0.0-6.0-0.0,f078aa2862041786868ef9f2ad23336df49386eb98fe8259951830bdf7c3dbfd,5e687fc5651f7d1259eac113,"[93, 179, 23, 230, 181, 7, 244, 75, 253, 178, 97, 251, 108, 79, 62, 178, 238, 213, 132, 118, 61, 240, 11, 86, 96, 72, 220, 99, 94, 29, 165, 18]",5f16fbd265c0910180e6bc92,5e687fc5651f7d1259eac113,5f170b62929269000a02a06a,0.27,zenith298,,,,,,,,,,,,,,
,p5cd_ad,69,215145,0.0-6.0-1.0-0.0,f078aa2862041786868ef9f2ad23336df49386eb98fe8259951830bdf7c3dbfd,5e687fc5651f7d1259eac113,"[93, 179, 23, 230, 181, 7, 244, 75, 253, 178, 97, 251, 108, 79, 62, 178, 238, 213, 132, 118, 61, 240, 11, 86, 96, 72, 220, 99, 94, 29, 165, 18]",5f16fbd265c0910180e6bc92,5e687fc5651f7d1259eac113,5f170b62929269000a02a06a,0.27,zenith298,,,3.0,0.0,1.0,1765.1189114181325,f,486.8810885818675,f,test,1.0,,,
,p5cd_ad,70,217605,0.0-6.0-1.0-0.1,f078aa2862041786868ef9f2ad23336df49386eb98fe8259951830bdf7c3dbfd,5e687fc5651f7d1259eac113,"[93, 179, 23, 230, 181, 7, 244, 75, 253, 178, 97, 251, 108, 79, 62, 178, 238, 213, 132, 118, 61, 240, 11, 86, 96, 72, 220, 99, 94, 29, 165, 18]",5f16fbd265c0910180e6bc92,5e687fc5651f7d1259eac113,5f170b62929269000a02a06a,0.27,zenith298,,,7.0,0.0,1.0,1832.1630440531299,j,105.83695594687015,f,test,0.0,,,
,p5cd_ad,71,220546,0.0-6.0-1.0-0.2,f078aa2862041786868ef9f2ad23336df49386eb98fe8259951830bdf7c3dbfd,5e687fc5651f7d1259eac113,"[93, 179, 23, 230, 181, 7, 244, 75, 253, 178, 97, 251, 108, 79, 62, 178, 238, 213, 132, 118, 61, 240, 11, 86, 96, 72, 220, 99, 94, 29, 165, 18]",5f16fbd265c0910180e6bc92,5e687fc5651f7d1259eac113,5f170b62929269000a02a06a,0.27,zenith298,,,9.0,1.0,1.0,2364.6188433961943,j,62.38115660380572,j,test,1.0,,,
,p5cd_ad,72,222873,0.0-6.0-1.0-0.3,f078aa2862041786868ef9f2ad23336df49386eb98fe8259951830bdf7c3dbfd,5e687fc5651f7d1259eac113,"[93, 179, 23, 230, 181, 7, 244, 75, 253, 178, 97, 251, 108, 79, 62, 178, 238, 213, 132, 118, 61, 240, 11, 86, 96, 72, 220, 99, 94, 29, 165, 18]",5f16fbd265c0910180e6bc92,5e687fc5651f7d1259eac113,5f170b62929269000a02a06a,0.27,zenith298,,,1.0,0.0,0.0,1623.4173130262643,f,174.5826869737357,f,test,1.0,,,
,p5cd_ad,73,226003,0.0-6.0-1.0-0.4,f078aa2862041786868ef9f2ad23336df49386eb98fe8259951830bdf7c3dbfd,5e687fc5651f7d1259eac113,"[93, 179, 23, 230, 181, 7, 244, 75, 253, 178, 97, 251, 108, 79, 62, 178, 238, 213, 132, 118, 61, 240, 11, 86, 96, 72, 220, 99, 94, 29, 165, 18]",5f16fbd265c0910180e6bc92,5e687fc5651f7d1259eac113,5f170b62929269000a02a06a,0.27,zenith298,,,3.0,0.0,0.0,2208.845719036646,f,398.1542809633538,f,test,1.0,,,
,p5cd_ad,74,228526,0.0-6.0-1.0-0.5,f078aa2862041786868ef9f2ad23336df49386eb98fe8259951830bdf7c3dbfd,5e687fc5651f7d1259eac113,"[93, 179, 23, 230, 181, 7, 244, 75, 253, 178, 97, 251, 108, 79, 62, 178, 238, 213, 132, 118, 61, 240, 11, 86, 96, 72, 220, 99, 94, 29, 165, 18]",5f16fbd265c0910180e6bc92,5e687fc5651f7d1259eac113,5f170b62929269000a02a06a,0.27,zenith298,,,9.0,1.0,0.0,1790.6088726762682,f,216.39112732373178,j,test,0.0,,,
,p5cd_ad,75,231172,0.0-6.0-1.0-0.6,f078aa2862041786868ef9f2ad23336df49386eb98fe8259951830bdf7c3dbfd,5e687fc5651f7d1259eac113,"[93, 179, 23, 230, 181, 7, 244, 75, 253, 178, 97, 251, 108, 79, 62, 178, 238, 213, 132, 118, 61, 240, 11, 86, 96, 72, 220, 99, 94, 29, 165, 18]",5f16fbd265c0910180e6bc92,5e687fc5651f7d1259eac113,5f170b62929269000a02a06a,0.27,zenith298,,,7.0,1.0,1.0,1737.4211720842868,f,392.5788279157132,j,test,0.0,,,
,p5cd_ad,76,234057,0.0-6.0-1.0-0.7,f078aa2862041786868ef9f2ad23336df49386eb98fe8259951830bdf7c3dbfd,5e687fc5651f7d1259eac113,"[93, 179, 23, 230, 181, 7, 244, 75, 253, 178, 97, 251, 108, 79, 62, 178, 238, 213, 132, 118, 61, 240, 11, 86, 96, 72, 220, 99, 94, 29, 165, 18]",5f16fbd265c0910180e6bc92,5e687fc5651f7d1259eac113,5f170b62929269000a02a06a,0.27,zenith298,,,11.0,0.0,0.0,1927.805710493587,f,444.19428950641304,f,test,1.0,,,
,p5cd_ad,77,237475,0.0-6.0-1.0-0.8,f078aa2862041786868ef9f2ad23336df49386eb98fe8259951830bdf7c3dbfd,5e687fc5651f7d1259eac113,"[93, 179, 23, 230, 181, 7, 244, 75, 253, 178, 97, 251, 108, 79, 62, 178, 238, 213, 132, 118, 61, 240, 11, 86, 96, 72, 220, 99, 94, 29, 165, 18]",5f16fbd265c0910180e6bc92,5e687fc5651f7d1259eac113,5f170b62929269000a02a06a,0.27,zenith298,,,11.0,0.0,1.0,2539.5368674881756,j,348.46313251182437,f,test,0.0,,,
,p5cd_ad,78,241677,0.0-6.0-1.0-0.9,f078aa2862041786868ef9f2ad23336df49386eb98fe8259951830bdf7c3dbfd,5e687fc5651f7d1259eac113,"[93, 179, 23, 230, 181, 7, 244, 75, 253, 178, 97, 251, 108, 79, 62, 178, 238, 213, 132, 118, 61, 240, 11, 86, 96, 72, 220, 99, 94, 29, 165, 18]",5f16fbd265c0910180e6bc92,5e687fc5651f7d1259eac113,5f170b62929269000a02a06a,0.27,zenith298,,,3.0,1.0,0.0,3223.041944477707,j,459.95805552229285,j,test,1.0,,,
,p5cd_ad,79,244203,0.0-6.0-1.0-0.10,f078aa2862041786868ef9f2ad23336df49386eb98fe8259951830bdf7c3dbfd,5e687fc5651f7d1259eac113,"[93, 179, 23, 230, 181, 7, 244, 75, 253, 178, 97, 251, 108, 79, 62, 178, 238, 213, 132, 118, 61, 240, 11, 86, 96, 72, 220, 99, 94, 29, 165, 18]",5f16fbd265c0910180e6bc92,5e687fc5651f7d1259eac113,5f170b62929269000a02a06a,0.27,zenith298,,,9.0,0.0,1.0,1969.9214875334874,f,44.07851246651262,f,test,1.0,,,
,p5cd_ad,80,246713,0.0-6.0-1.0-0.11,f078aa2862041786868ef9f2ad23336df49386eb98fe8259951830bdf7c3dbfd,5e687fc5651f7d1259eac113,"[93, 179, 23, 230, 181, 7, 244, 75, 253, 178, 97, 251, 108, 79, 62, 178, 238, 213, 132, 118, 61, 240, 11, 86, 96, 72, 220, 99, 94, 29, 165, 18]",5f16fbd265c0910180e6bc92,5e687fc5651f7d1259eac113,5f170b62929269000a02a06a,0.27,zenith298,,,1.0,1.0,0.0,1834.5959517098963,j,148.40404829010367,j,test,1.0,,,
,p5cd_ad,81,249396,0.0-6.0-1.0-0.12,f078aa2862041786868ef9f2ad23336df49386eb98fe8259951830bdf7c3dbfd,5e687fc5651f7d1259eac113,"[93, 179, 23, 230, 181, 7, 244, 75, 253, 178, 97, 251, 108, 79, 62, 178, 238, 213, 132, 118, 61, 240, 11, 86, 96, 72, 220, 99, 94, 29, 165, 18]",5f16fbd265c0910180e6bc92,5e687fc5651f7d1259eac113,5f170b62929269000a02a06a,0.27,zenith298,,,7.0,0.0,0.0,2077.9260240728036,f,72.07397592719644,f,test,1.0,,,
,p5cd_ad,82,251988,0.0-6.0-1.0-0.13,f078aa2862041786868ef9f2ad23336df49386eb98fe8259951830bdf7c3dbfd,5e687fc5651f7d1259eac113,"[93, 179, 23, 230, 181, 7, 244, 75, 253, 178, 97, 251, 108, 79, 62, 178, 238, 213, 132, 118, 61, 240, 11, 86, 96, 72, 220, 99, 94, 29, 165, 18]",5f16fbd265c0910180e6bc92,5e687fc5651f7d1259eac113,5f170b62929269000a02a06a,0.27,zenith298,,,3.0,1.0,1.0,1695.6597528746352,f,369.34024712536484,j,test,0.0,,,
,p5cd_ad,83,255736,0.0-6.0-1.0-0.14,f078aa2862041786868ef9f2ad23336df49386eb98fe8259951830bdf7c3dbfd,5e687fc5651f7d1259eac113,"[93, 179, 23, 230, 181, 7, 244, 75, 253, 178, 97, 251, 108, 79, 62, 178, 238, 213, 132, 118, 61, 240, 11, 86, 96, 72, 220, 99, 94, 29, 165, 18]",5f16fbd265c0910180e6bc92,5e687fc5651f7d1259eac113,5f170b62929269000a02a06a,0.27,zenith298,,,7.0,1.0,0.0,3029.5103526245803,f,191.48964737541974,j,test,0.0,,,
,p5cd_ad,84,258329,0.0-6.0-1.0-0.15,f078aa2862041786868ef9f2ad23336df49386eb98fe8259951830bdf7c3dbfd,5e687fc5651f7d1259eac113,"[93, 179, 23, 230, 181, 7, 244, 75, 253, 178, 97, 251, 108, 79, 62, 178, 238, 213, 132, 118, 61, 240, 11, 86, 96, 72, 220, 99, 94, 29, 165, 18]",5f16fbd265c0910180e6bc92,5e687fc5651f7d1259eac113,5f170b62929269000a02a06a,0.27,zenith298,,,5.0,0.0,0.0,2064.2207528725266,f,7.779247127473354,f,test,1.0,,,
,p5cd_ad,85,260946,0.0-6.0-1.0-0.16,f078aa2862041786868ef9f2ad23336df49386eb98fe8259951830bdf7c3dbfd,5e687fc5651f7d1259eac113,"[93, 179, 23, 230, 181, 7, 244, 75, 253, 178, 97, 251, 108, 79, 62, 178, 238, 213, 132, 118, 61, 240, 11, 86, 96, 72, 220, 99, 94, 29, 165, 18]",5f16fbd265c0910180e6bc92,5e687fc5651f7d1259eac113,5f170b62929269000a02a06a,0.27,zenith298,,,5.0,0.0,1.0,1767.323047760874,f,332.67695223912597,f,test,1.0,,,
,p5cd_ad,86,263354,0.0-6.0-1.0-0.17,f078aa2862041786868ef9f2ad23336df49386eb98fe8259951830bdf7c3dbfd,5e687fc5651f7d1259eac113,"[93, 179, 23, 230, 181, 7, 244, 75, 253, 178, 97, 251, 108, 79, 62, 178, 238, 213, 132, 118, 61, 240, 11, 86, 96, 72, 220, 99, 94, 29, 165, 18]",5f16fbd265c0910180e6bc92,5e687fc5651f7d1259eac113,5f170b62929269000a02a06a,0.27,zenith298,,,5.0,1.0,0.0,1768.5462909974158,f,107.45370900258422,j,test,0.0,,,
,p5cd_ad,87,265893,0.0-6.0-1.0-0.18,f078aa2862041786868ef9f2ad23336df49386eb98fe8259951830bdf7c3dbfd,5e687fc5651f7d1259eac113,"[93, 179, 23, 230, 181, 7, 244, 75, 253, 178, 97, 251, 108, 79, 62, 178, 238, 213, 132, 118, 61, 240, 11, 86, 96, 72, 220, 99, 94, 29, 165, 18]",5f16fbd265c0910180e6bc92,5e687fc5651f7d1259eac113,5f170b62929269000a02a06a,0.27,zenith298,,,5.0,1.0,1.0,1745.575579197146,f,267.424420802854,j,test,0.0,,,
,p5cd_ad,88,268363,0.0-6.0-1.0-0.19,f078aa2862041786868ef9f2ad23336df49386eb98fe8259951830bdf7c3dbfd,5e687fc5651f7d1259eac113,"[93, 179, 23, 230, 181, 7, 244, 75, 253, 178, 97, 251, 108, 79, 62, 178, 238, 213, 132, 118, 61, 240, 11, 86, 96, 72, 220, 99, 94, 29, 165, 18]",5f16fbd265c0910180e6bc92,5e687fc5651f7d1259eac113,5f170b62929269000a02a06a,0.27,zenith298,,,11.0,1.0,1.0,1772.2959786057472,f,166.70402139425278,j,test,0.0,,,
,p5cd_ad,89,270955,0.0-6.0-1.0-0.20,f078aa2862041786868ef9f2ad23336df49386eb98fe8259951830bdf7c3dbfd,5e687fc5651f7d1259eac113,"[93, 179, 23, 230, 181, 7, 244, 75, 253, 178, 97, 251, 108, 79, 62, 178, 238, 213, 132, 118, 61, 240, 11, 86, 96, 72, 220, 99, 94, 29, 165, 18]",5f16fbd265c0910180e6bc92,5e687fc5651f7d1259eac113,5f170b62929269000a02a06a,0.27,zenith298,,,1.0,1.0,1.0,1719.552166229114,j,350.44783377088606,j,test,1.0,,,
,p5cd_ad,90,273618,0.0-6.0-1.0-0.21,f078aa2862041786868ef9f2ad23336df49386eb98fe8259951830bdf7c3dbfd,5e687fc5651f7d1259eac113,"[93, 179, 23, 230, 181, 7, 244, 75, 253, 178, 97, 251, 108, 79, 62, 178, 238, 213, 132, 118, 61, 240, 11, 86, 96, 72, 220, 99, 94, 29, 165, 18]",5f16fbd265c0910180e6bc92,5e687fc5651f7d1259eac113,5f170b62929269000a02a06a,0.27,zenith298,,,11.0,1.0,0.0,1911.9897236889228,j,230.01027631107718,j,test,1.0,,,
,p5cd_ad,91,276384,0.0-6.0-1.0-0.22,f078aa2862041786868ef9f2ad23336df49386eb98fe8259951830bdf7c3dbfd,5e687fc5651f7d1259eac113,"[93, 179, 23, 230, 181, 7, 244, 75, 253, 178, 97, 251, 108, 79, 62, 178, 238, 213, 132, 118, 61, 240, 11, 86, 96, 72, 220, 99, 94, 29, 165, 18]",5f16fbd265c0910180e6bc92,5e687fc5651f7d1259eac113,5f170b62929269000a02a06a,0.27,zenith298,,,9.0,0.0,0.0,2003.1874524354935,j,229.81254756450653,f,test,0.0,,,
,p5cd_ad,92,279074,0.0-6.0-1.0-0.23,f078aa2862041786868ef9f2ad23336df49386eb98fe8259951830bdf7c3dbfd,5e687fc5651f7d1259eac113,"[93, 179, 23, 230, 181, 7, 244, 75, 253, 178, 97, 251, 108, 79, 62, 178, 238, 213, 132, 118, 61, 240, 11, 86, 96, 72, 220, 99, 94, 29, 165, 18]",5f16fbd265c0910180e6bc92,5e687fc5651f7d1259eac113,5f170b62929269000a02a06a,0.27,zenith298,,,1.0,0.0,1.0,1672.5675148600712,f,483.43248513992876,f,test,1.0,,,
,p5Text,93,280770,0.0-6.0-2.0,f078aa2862041786868ef9f2ad23336df49386eb98fe8259951830bdf7c3dbfd,5e687fc5651f7d1259eac113,"[93, 179, 23, 230, 181, 7, 244, 75, 253, 178, 97, 251, 108, 79, 62, 178, 238, 213, 132, 118, 61, 240, 11, 86, 96, 72, 220, 99, 94, 29, 165, 18]",5f16fbd265c0910180e6bc92,5e687fc5651f7d1259eac113,5f170b62929269000a02a06a,0.27,zenith298,,,,,,,,,,,,,,
,p5Text,94,283065,0.0-6.0-0.1,f078aa2862041786868ef9f2ad23336df49386eb98fe8259951830bdf7c3dbfd,5e687fc5651f7d1259eac113,"[93, 179, 23, 230, 181, 7, 244, 75, 253, 178, 97, 251, 108, 79, 62, 178, 238, 213, 132, 118, 61, 240, 11, 86, 96, 72, 220, 99, 94, 29, 165, 18]",5f16fbd265c0910180e6bc92,5e687fc5651f7d1259eac113,5f170b62929269000a02a06a,0.27,zenith298,,,,,,,,,,,,,,
,p5cd_ad,95,286466,0.0-6.0-1.1-0.24,f078aa2862041786868ef9f2ad23336df49386eb98fe8259951830bdf7c3dbfd,5e687fc5651f7d1259eac113,"[93, 179, 23, 230, 181, 7, 244, 75, 253, 178, 97, 251, 108, 79, 62, 178, 238, 213, 132, 118, 61, 240, 11, 86, 96, 72, 220, 99, 94, 29, 165, 18]",5f16fbd265c0910180e6bc92,5e687fc5651f7d1259eac113,5f170b62929269000a02a06a,0.27,zenith298,,,1.0,1.0,0.0,2670.4353469433263,j,203.5646530566737,j,test,1.0,,,
,p5cd_ad,96,289730,0.0-6.0-1.1-0.25,f078aa2862041786868ef9f2ad23336df49386eb98fe8259951830bdf7c3dbfd,5e687fc5651f7d1259eac113,"[93, 179, 23, 230, 181, 7, 244, 75, 253, 178, 97, 251, 108, 79, 62, 178, 238, 213, 132, 118, 61, 240, 11, 86, 96, 72, 220, 99, 94, 29, 165, 18]",5f16fbd265c0910180e6bc92,5e687fc5651f7d1259eac113,5f170b62929269000a02a06a,0.27,zenith298,,,11.0,1.0,0.0,2680.5591548634693,f,61.4408451365307,j,test,0.0,,,
,p5cd_ad,97,292192,0.0-6.0-1.1-0.26,f078aa2862041786868ef9f2ad23336df49386eb98fe8259951830bdf7c3dbfd,5e687fc5651f7d1259eac113,"[93, 179, 23, 230, 181, 7, 244, 75, 253, 178, 97, 251, 108, 79, 62, 178, 238, 213, 132, 118, 61, 240, 11, 86, 96, 72, 220, 99, 94, 29, 165, 18]",5f16fbd265c0910180e6bc92,5e687fc5651f7d1259eac113,5f170b62929269000a02a06a,0.27,zenith298,,,7.0,1.0,0.0,1716.845159505494,j,215.15484049450606,j,test,1.0,,,
,p5cd_ad,98,294829,0.0-6.0-1.1-0.27,f078aa2862041786868ef9f2ad23336df49386eb98fe8259951830bdf7c3dbfd,5e687fc5651f7d1259eac113,"[93, 179, 23, 230, 181, 7, 244, 75, 253, 178, 97, 251, 108, 79, 62, 178, 238, 213, 132, 118, 61, 240, 11, 86, 96, 72, 220, 99, 94, 29, 165, 18]",5f16fbd265c0910180e6bc92,5e687fc5651f7d1259eac113,5f170b62929269000a02a06a,0.27,zenith298,,,5.0,1.0,1.0,1852.966429834254,j,266.0335701657459,j,test,1.0,,,
,p5cd_ad,99,297397,0.0-6.0-1.1-0.28,f078aa2862041786868ef9f2ad23336df49386eb98fe8259951830bdf7c3dbfd,5e687fc5651f7d1259eac113,"[93, 179, 23, 230, 181, 7, 244, 75, 253, 178, 97, 251, 108, 79, 62, 178, 238, 213, 132, 118, 61, 240, 11, 86, 96, 72, 220, 99, 94, 29, 165, 18]",5f16fbd265c0910180e6bc92,5e687fc5651f7d1259eac113,5f170b62929269000a02a06a,0.27,zenith298,,,7.0,0.0,1.0,1566.9632536740974,f,467.03674632590264,f,test,1.0,,,
,p5cd_ad,100,300332,0.0-6.0-1.1-0.29,f078aa2862041786868ef9f2ad23336df49386eb98fe8259951830bdf7c3dbfd,5e687fc5651f7d1259eac113,"[93, 179, 23, 230, 181, 7, 244, 75, 253, 178, 97, 251, 108, 79, 62, 178, 238, 213, 132, 118, 61, 240, 11, 86, 96, 72, 220, 99, 94, 29, 165, 18]",5f16fbd265c0910180e6bc92,5e687fc5651f7d1259eac113,5f170b62929269000a02a06a,0.27,zenith298,,,1.0,0.0,1.0,2102.149502310902,f,315.8504976890981,f,test,1.0,,,
,p5cd_ad,101,303097,0.0-6.0-1.1-0.30,f078aa2862041786868ef9f2ad23336df49386eb98fe8259951830bdf7c3dbfd,5e687fc5651f7d1259eac113,"[93, 179, 23, 230, 181, 7, 244, 75, 253, 178, 97, 251, 108, 79, 62, 178, 238, 213, 132, 118, 61, 240, 11, 86, 96, 72, 220, 99, 94, 29, 165, 18]",5f16fbd265c0910180e6bc92,5e687fc5651f7d1259eac113,5f170b62929269000a02a06a,0.27,zenith298,,,11.0,0.0,1.0,1925.5660389102995,j,322.43396108970046,f,test,0.0,,,
,p5cd_ad,102,305895,0.0-6.0-1.1-0.31,f078aa2862041786868ef9f2ad23336df49386eb98fe8259951830bdf7c3dbfd,5e687fc5651f7d1259eac113,"[93, 179, 23, 230, 181, 7, 244, 75, 253, 178, 97, 251, 108, 79, 62, 178, 238, 213, 132, 118, 61, 240, 11, 86, 96, 72, 220, 99, 94, 29, 165, 18]",5f16fbd265c0910180e6bc92,5e687fc5651f7d1259eac113,5f170b62929269000a02a06a,0.27,zenith298,,,9.0,0.0,1.0,2097.6701241219416,j,177.32987587805837,f,test,0.0,,,
,p5cd_ad,103,308232,0.0-6.0-1.1-0.32,f078aa2862041786868ef9f2ad23336df49386eb98fe8259951830bdf7c3dbfd,5e687fc5651f7d1259eac113,"[93, 179, 23, 230, 181, 7, 244, 75, 253, 178, 97, 251, 108, 79, 62, 178, 238, 213, 132, 118, 61, 240, 11, 86, 96, 72, 220, 99, 94, 29, 165, 18]",5f16fbd265c0910180e6bc92,5e687fc5651f7d1259eac113,5f170b62929269000a02a06a,0.27,zenith298,,,11.0,1.0,1.0,1573.9028260279447,f,233.09717397205532,j,test,0.0,,,
,p5cd_ad,104,310489,0.0-6.0-1.1-0.33,f078aa2862041786868ef9f2ad23336df49386eb98fe8259951830bdf7c3dbfd,5e687fc5651f7d1259eac113,"[93, 179, 23, 230, 181, 7, 244, 75, 253, 178, 97, 251, 108, 79, 62, 178, 238, 213, 132, 118, 61, 240, 11, 86, 96, 72, 220, 99, 94, 29, 165, 18]",5f16fbd265c0910180e6bc92,5e687fc5651f7d1259eac113,5f170b62929269000a02a06a,0.27,zenith298,,,3.0,1.0,1.0,1647.5176334148273,f,77.48236658517271,j,test,0.0,,,
,p5cd_ad,105,312865,0.0-6.0-1.1-0.34,f078aa2862041786868ef9f2ad23336df49386eb98fe8259951830bdf7c3dbfd,5e687fc5651f7d1259eac113,"[93, 179, 23, 230, 181, 7, 244, 75, 253, 178, 97, 251, 108, 79, 62, 178, 238, 213, 132, 118, 61, 240, 11, 86, 96, 72, 220, 99, 94, 29, 165, 18]",5f16fbd265c0910180e6bc92,5e687fc5651f7d1259eac113,5f170b62929269000a02a06a,0.27,zenith298,,,11.0,0.0,0.0,1652.595508995466,f,209.40449100453407,f,test,1.0,,,
,p5cd_ad,106,315683,0.0-6.0-1.1-0.35,f078aa2862041786868ef9f2ad23336df49386eb98fe8259951830bdf7c3dbfd,5e687fc5651f7d1259eac113,"[93, 179, 23, 230, 181, 7, 244, 75, 253, 178, 97, 251, 108, 79, 62, 178, 238, 213, 132, 118, 61, 240, 11, 86, 96, 72, 220, 99, 94, 29, 165, 18]",5f16fbd265c0910180e6bc92,5e687fc5651f7d1259eac113,5f170b62929269000a02a06a,0.27,zenith298,,,5.0,1.0,0.0,2219.102788954973,j,74.89721104502678,j,test,1.0,,,
,p5cd_ad,107,318087,0.0-6.0-1.1-0.36,f078aa2862041786868ef9f2ad23336df49386eb98fe8259951830bdf7c3dbfd,5e687fc5651f7d1259eac113,"[93, 179, 23, 230, 181, 7, 244, 75, 253, 178, 97, 251, 108, 79, 62, 178, 238, 213, 132, 118, 61, 240, 11, 86, 96, 72, 220, 99, 94, 29, 165, 18]",5f16fbd265c0910180e6bc92,5e687fc5651f7d1259eac113,5f170b62929269000a02a06a,0.27,zenith298,,,1.0,1.0,1.0,1716.1430840203539,j,177.85691597964615,j,test,1.0,,,
,p5cd_ad,108,321021,0.0-6.0-1.1-0.37,f078aa2862041786868ef9f2ad23336df49386eb98fe8259951830bdf7c3dbfd,5e687fc5651f7d1259eac113,"[93, 179, 23, 230, 181, 7, 244, 75, 253, 178, 97, 251, 108, 79, 62, 178, 238, 213, 132, 118, 61, 240, 11, 86, 96, 72, 220, 99, 94, 29, 165, 18]",5f16fbd265c0910180e6bc92,5e687fc5651f7d1259eac113,5f170b62929269000a02a06a,0.27,zenith298,,,3.0,0.0,0.0,2118.5184713834897,j,290.48152861651033,f,test,0.0,,,
,p5cd_ad,109,324329,0.0-6.0-1.1-0.38,f078aa2862041786868ef9f2ad23336df49386eb98fe8259951830bdf7c3dbfd,5e687fc5651f7d1259eac113,"[93, 179, 23, 230, 181, 7, 244, 75, 253, 178, 97, 251, 108, 79, 62, 178, 238, 213, 132, 118, 61, 240, 11, 86, 96, 72, 220, 99, 94, 29, 165, 18]",5f16fbd265c0910180e6bc92,5e687fc5651f7d1259eac113,5f170b62929269000a02a06a,0.27,zenith298,,,9.0,1.0,1.0,2379.631653374061,f,403.368346625939,j,test,0.0,,,
,p5cd_ad,110,326925,0.0-6.0-1.1-0.39,f078aa2862041786868ef9f2ad23336df49386eb98fe8259951830bdf7c3dbfd,5e687fc5651f7d1259eac113,"[93, 179, 23, 230, 181, 7, 244, 75, 253, 178, 97, 251, 108, 79, 62, 178, 238, 213, 132, 118, 61, 240, 11, 86, 96, 72, 220, 99, 94, 29, 165, 18]",5f16fbd265c0910180e6bc92,5e687fc5651f7d1259eac113,5f170b62929269000a02a06a,0.27,zenith298,,,7.0,1.0,1.0,2010.3404426565394,j,55.65955734346062,j,test,1.0,,,
