success,trial_type,trial_index,time_elapsed,internal_node_id,STUDY_ID,PROLIFIC_PID,SESSION_ID,FP,bonus,draw_light,RT,response,correct_response,test_part,correct,rt,responses
1.0,fullscreen,0,3392,0.0-0.0,5f004f090329ec14b5f49015,5df35eebc12a3623d578f307,5f005ccdafb92f000c028644,False,0.42,,,,,,,,
,p5Text,1,8843,0.0-1.0,5f004f090329ec14b5f49015,5df35eebc12a3623d578f307,5f005ccdafb92f000c028644,False,0.42,,,,,,,,
,p5Text,2,10040,0.0-2.0,5f004f090329ec14b5f49015,5df35eebc12a3623d578f307,5f005ccdafb92f000c028644,False,0.42,,,,,,,,
,p5Text,3,22358,0.0-3.0,5f004f090329ec14b5f49015,5df35eebc12a3623d578f307,5f005ccdafb92f000c028644,False,0.42,,,,,,,,
,p5Text,4,25643,0.0-4.0,5f004f090329ec14b5f49015,5df35eebc12a3623d578f307,5f005ccdafb92f000c028644,False,0.42,,,,,,,,
,p5card,5,31582,0.0-5.0-0.0,5f004f090329ec14b5f49015,5df35eebc12a3623d578f307,5f005ccdafb92f000c028644,False,0.42,0.0,3622.9000000748783,f,f,test,1.0,,
,p5feedback,6,36176,0.0-5.0-1.0,5f004f090329ec14b5f49015,5df35eebc12a3623d578f307,5f005ccdafb92f000c028644,False,0.42,,,,,,,,
,p5card,7,40048,0.0-5.0-0.1,5f004f090329ec14b5f49015,5df35eebc12a3623d578f307,5f005ccdafb92f000c028644,False,0.42,1.0,1537.745000096038,f,j,test,0.0,,
,p5feedback,8,42193,0.0-5.0-1.1,5f004f090329ec14b5f49015,5df35eebc12a3623d578f307,5f005ccdafb92f000c028644,False,0.42,,,,,,,,
,p5card,9,45582,0.0-5.0-0.2,5f004f090329ec14b5f49015,5df35eebc12a3623d578f307,5f005ccdafb92f000c028644,False,0.42,0.0,952.3300000000745,j,f,test,0.0,,
,p5feedback,10,46359,0.0-5.0-1.2,5f004f090329ec14b5f49015,5df35eebc12a3623d578f307,5f005ccdafb92f000c028644,False,0.42,,,,,,,,
,p5card,11,49032,0.0-5.0-0.3,5f004f090329ec14b5f49015,5df35eebc12a3623d578f307,5f005ccdafb92f000c028644,False,0.42,1.0,369.6050001308322,j,j,test,1.0,,
,p5feedback,12,49622,0.0-5.0-1.3,5f004f090329ec14b5f49015,5df35eebc12a3623d578f307,5f005ccdafb92f000c028644,False,0.42,,,,,,,,
,p5card,13,52465,0.0-5.0-0.4,5f004f090329ec14b5f49015,5df35eebc12a3623d578f307,5f005ccdafb92f000c028644,False,0.42,0.0,474.75999989546835,j,f,test,0.0,,
,p5feedback,14,53585,0.0-5.0-1.4,5f004f090329ec14b5f49015,5df35eebc12a3623d578f307,5f005ccdafb92f000c028644,False,0.42,,,,,,,,
,p5card,15,56348,0.0-5.0-0.5,5f004f090329ec14b5f49015,5df35eebc12a3623d578f307,5f005ccdafb92f000c028644,False,0.42,1.0,462.91000000201166,j,j,test,1.0,,
,p5feedback,16,57292,0.0-5.0-1.5,5f004f090329ec14b5f49015,5df35eebc12a3623d578f307,5f005ccdafb92f000c028644,False,0.42,,,,,,,,
,p5card,17,59901,0.0-5.0-0.6,5f004f090329ec14b5f49015,5df35eebc12a3623d578f307,5f005ccdafb92f000c028644,False,0.42,1.0,266.3850001990795,j,j,test,1.0,,
,p5feedback,18,60487,0.0-5.0-1.6,5f004f090329ec14b5f49015,5df35eebc12a3623d578f307,5f005ccdafb92f000c028644,False,0.42,,,,,,,,
,p5card,19,63530,0.0-5.0-0.7,5f004f090329ec14b5f49015,5df35eebc12a3623d578f307,5f005ccdafb92f000c028644,False,0.42,0.0,713.5750001762062,j,f,test,0.0,,
,p5feedback,20,64276,0.0-5.0-1.7,5f004f090329ec14b5f49015,5df35eebc12a3623d578f307,5f005ccdafb92f000c028644,False,0.42,,,,,,,,
,p5card,21,67030,0.0-5.0-0.8,5f004f090329ec14b5f49015,5df35eebc12a3623d578f307,5f005ccdafb92f000c028644,False,0.42,0.0,473.5799999907613,j,f,test,0.0,,
,p5feedback,22,68379,0.0-5.0-1.8,5f004f090329ec14b5f49015,5df35eebc12a3623d578f307,5f005ccdafb92f000c028644,False,0.42,,,,,,,,
,p5card,23,71214,0.0-5.0-0.9,5f004f090329ec14b5f49015,5df35eebc12a3623d578f307,5f005ccdafb92f000c028644,False,0.42,1.0,544.2100001964718,j,j,test,1.0,,
,p5feedback,24,71768,0.0-5.0-1.9,5f004f090329ec14b5f49015,5df35eebc12a3623d578f307,5f005ccdafb92f000c028644,False,0.42,,,,,,,,
,p5card,25,74579,0.0-5.0-0.10,5f004f090329ec14b5f49015,5df35eebc12a3623d578f307,5f005ccdafb92f000c028644,False,0.42,1.0,535.0750000216067,j,j,test,1.0,,
,p5feedback,26,75274,0.0-5.0-1.10,5f004f090329ec14b5f49015,5df35eebc12a3623d578f307,5f005ccdafb92f000c028644,False,0.42,,,,,,,,
,p5card,27,78713,0.0-5.0-0.11,5f004f090329ec14b5f49015,5df35eebc12a3623d578f307,5f005ccdafb92f000c028644,False,0.42,0.0,1113.385000033304,j,f,test,0.0,,
,p5feedback,28,79542,0.0-5.0-1.11,5f004f090329ec14b5f49015,5df35eebc12a3623d578f307,5f005ccdafb92f000c028644,False,0.42,,,,,,,,
,p5card,29,82411,0.0-5.0-0.12,5f004f090329ec14b5f49015,5df35eebc12a3623d578f307,5f005ccdafb92f000c028644,False,0.42,1.0,577.5250000879169,j,j,test,1.0,,
,p5feedback,30,82838,0.0-5.0-1.12,5f004f090329ec14b5f49015,5df35eebc12a3623d578f307,5f005ccdafb92f000c028644,False,0.42,,,,,,,,
,p5card,31,86345,0.0-5.0-0.13,5f004f090329ec14b5f49015,5df35eebc12a3623d578f307,5f005ccdafb92f000c028644,False,0.42,0.0,684.9399998318404,f,f,test,1.0,,
,p5feedback,32,87157,0.0-5.0-1.13,5f004f090329ec14b5f49015,5df35eebc12a3623d578f307,5f005ccdafb92f000c028644,False,0.42,,,,,,,,
,p5card,33,89978,0.0-5.0-0.14,5f004f090329ec14b5f49015,5df35eebc12a3623d578f307,5f005ccdafb92f000c028644,False,0.42,0.0,434.7399999387562,j,f,test,0.0,,
,p5feedback,34,95851,0.0-5.0-1.14,5f004f090329ec14b5f49015,5df35eebc12a3623d578f307,5f005ccdafb92f000c028644,False,0.42,,,,,,,,
,p5card,35,98844,0.0-5.0-0.15,5f004f090329ec14b5f49015,5df35eebc12a3623d578f307,5f005ccdafb92f000c028644,False,0.42,1.0,678.1800000462681,j,j,test,1.0,,
,p5feedback,36,99424,0.0-5.0-1.15,5f004f090329ec14b5f49015,5df35eebc12a3623d578f307,5f005ccdafb92f000c028644,False,0.42,,,,,,,,
,p5card,37,102460,0.0-5.0-0.16,5f004f090329ec14b5f49015,5df35eebc12a3623d578f307,5f005ccdafb92f000c028644,False,0.42,0.0,738.0899998825043,f,f,test,1.0,,
,p5feedback,38,103529,0.0-5.0-1.16,5f004f090329ec14b5f49015,5df35eebc12a3623d578f307,5f005ccdafb92f000c028644,False,0.42,,,,,,,,
,p5card,39,106328,0.0-5.0-0.17,5f004f090329ec14b5f49015,5df35eebc12a3623d578f307,5f005ccdafb92f000c028644,False,0.42,1.0,491.0750000271946,f,j,test,0.0,,
,p5feedback,40,106913,0.0-5.0-1.17,5f004f090329ec14b5f49015,5df35eebc12a3623d578f307,5f005ccdafb92f000c028644,False,0.42,,,,,,,,
,p5card,41,112360,0.0-5.0-0.18,5f004f090329ec14b5f49015,5df35eebc12a3623d578f307,5f005ccdafb92f000c028644,False,0.42,0.0,3073.0999999213964,j,f,test,0.0,,
,p5feedback,42,113290,0.0-5.0-1.18,5f004f090329ec14b5f49015,5df35eebc12a3623d578f307,5f005ccdafb92f000c028644,False,0.42,,,,,,,,
,p5card,43,116093,0.0-5.0-0.19,5f004f090329ec14b5f49015,5df35eebc12a3623d578f307,5f005ccdafb92f000c028644,False,0.42,1.0,437.26000003516674,j,j,test,1.0,,
,p5feedback,44,116493,0.0-5.0-1.19,5f004f090329ec14b5f49015,5df35eebc12a3623d578f307,5f005ccdafb92f000c028644,False,0.42,,,,,,,,
,p5card,45,119310,0.0-5.0-0.20,5f004f090329ec14b5f49015,5df35eebc12a3623d578f307,5f005ccdafb92f000c028644,False,0.42,0.0,515.4800000600517,j,f,test,0.0,,
,p5feedback,46,119969,0.0-5.0-1.20,5f004f090329ec14b5f49015,5df35eebc12a3623d578f307,5f005ccdafb92f000c028644,False,0.42,,,,,,,,
,p5card,47,122660,0.0-5.0-0.21,5f004f090329ec14b5f49015,5df35eebc12a3623d578f307,5f005ccdafb92f000c028644,False,0.42,1.0,423.46000019460917,j,j,test,1.0,,
,p5feedback,48,123217,0.0-5.0-1.21,5f004f090329ec14b5f49015,5df35eebc12a3623d578f307,5f005ccdafb92f000c028644,False,0.42,,,,,,,,
,p5card,49,127859,0.0-5.0-0.22,5f004f090329ec14b5f49015,5df35eebc12a3623d578f307,5f005ccdafb92f000c028644,False,0.42,1.0,2379.8350000288337,f,j,test,0.0,,
,p5feedback,50,128413,0.0-5.0-1.22,5f004f090329ec14b5f49015,5df35eebc12a3623d578f307,5f005ccdafb92f000c028644,False,0.42,,,,,,,,
,p5card,51,131159,0.0-5.0-0.23,5f004f090329ec14b5f49015,5df35eebc12a3623d578f307,5f005ccdafb92f000c028644,False,0.42,0.0,411.6100000683218,j,f,test,0.0,,
,p5feedback,52,131835,0.0-5.0-1.23,5f004f090329ec14b5f49015,5df35eebc12a3623d578f307,5f005ccdafb92f000c028644,False,0.42,,,,,,,,
,p5card,53,134609,0.0-5.0-0.24,5f004f090329ec14b5f49015,5df35eebc12a3623d578f307,5f005ccdafb92f000c028644,False,0.42,0.0,448.77499993890524,j,f,test,0.0,,
,p5feedback,54,135983,0.0-5.0-1.24,5f004f090329ec14b5f49015,5df35eebc12a3623d578f307,5f005ccdafb92f000c028644,False,0.42,,,,,,,,
,p5card,55,138892,0.0-5.0-0.25,5f004f090329ec14b5f49015,5df35eebc12a3623d578f307,5f005ccdafb92f000c028644,False,0.42,1.0,358.2500000484288,j,j,test,1.0,,
,p5feedback,56,139977,0.0-5.0-1.25,5f004f090329ec14b5f49015,5df35eebc12a3623d578f307,5f005ccdafb92f000c028644,False,0.42,,,,,,,,
,p5card,57,142525,0.0-5.0-0.26,5f004f090329ec14b5f49015,5df35eebc12a3623d578f307,5f005ccdafb92f000c028644,False,0.42,0.0,275.09999996982515,j,f,test,0.0,,
,p5feedback,58,143687,0.0-5.0-1.26,5f004f090329ec14b5f49015,5df35eebc12a3623d578f307,5f005ccdafb92f000c028644,False,0.42,,,,,,,,
,p5card,59,146491,0.0-5.0-0.27,5f004f090329ec14b5f49015,5df35eebc12a3623d578f307,5f005ccdafb92f000c028644,False,0.42,1.0,550.4600000567734,j,j,test,1.0,,
,p5feedback,60,147265,0.0-5.0-1.27,5f004f090329ec14b5f49015,5df35eebc12a3623d578f307,5f005ccdafb92f000c028644,False,0.42,,,,,,,,
,p5card,61,150024,0.0-5.0-0.28,5f004f090329ec14b5f49015,5df35eebc12a3623d578f307,5f005ccdafb92f000c028644,False,0.42,0.0,432.1249998174608,j,f,test,0.0,,
,p5feedback,62,150786,0.0-5.0-1.28,5f004f090329ec14b5f49015,5df35eebc12a3623d578f307,5f005ccdafb92f000c028644,False,0.42,,,,,,,,
,p5card,63,153907,0.0-5.0-0.29,5f004f090329ec14b5f49015,5df35eebc12a3623d578f307,5f005ccdafb92f000c028644,False,0.42,1.0,394.6950000245124,j,j,test,1.0,,
,p5feedback,64,154280,0.0-5.0-1.29,5f004f090329ec14b5f49015,5df35eebc12a3623d578f307,5f005ccdafb92f000c028644,False,0.42,,,,,,,,
,p5card,65,157257,0.0-5.0-0.30,5f004f090329ec14b5f49015,5df35eebc12a3623d578f307,5f005ccdafb92f000c028644,False,0.42,1.0,615.6299998983741,j,j,test,1.0,,
,p5feedback,66,157700,0.0-5.0-1.30,5f004f090329ec14b5f49015,5df35eebc12a3623d578f307,5f005ccdafb92f000c028644,False,0.42,,,,,,,,
,p5card,67,161023,0.0-5.0-0.31,5f004f090329ec14b5f49015,5df35eebc12a3623d578f307,5f005ccdafb92f000c028644,False,0.42,0.0,990.0100000668317,f,f,test,1.0,,
,p5feedback,68,161650,0.0-5.0-1.31,5f004f090329ec14b5f49015,5df35eebc12a3623d578f307,5f005ccdafb92f000c028644,False,0.42,,,,,,,,
,p5card,69,164290,0.0-5.0-0.32,5f004f090329ec14b5f49015,5df35eebc12a3623d578f307,5f005ccdafb92f000c028644,False,0.42,1.0,358.6850001011044,j,j,test,1.0,,
,p5feedback,70,164679,0.0-5.0-1.32,5f004f090329ec14b5f49015,5df35eebc12a3623d578f307,5f005ccdafb92f000c028644,False,0.42,,,,,,,,
,p5card,71,168123,0.0-5.0-0.33,5f004f090329ec14b5f49015,5df35eebc12a3623d578f307,5f005ccdafb92f000c028644,False,0.42,0.0,1175.0699998810887,j,f,test,0.0,,
,p5feedback,72,168792,0.0-5.0-1.33,5f004f090329ec14b5f49015,5df35eebc12a3623d578f307,5f005ccdafb92f000c028644,False,0.42,,,,,,,,
,p5card,73,171540,0.0-5.0-0.34,5f004f090329ec14b5f49015,5df35eebc12a3623d578f307,5f005ccdafb92f000c028644,False,0.42,1.0,433.91999998129904,j,j,test,1.0,,
,p5feedback,74,172120,0.0-5.0-1.34,5f004f090329ec14b5f49015,5df35eebc12a3623d578f307,5f005ccdafb92f000c028644,False,0.42,,,,,,,,
,p5card,75,175273,0.0-5.0-0.35,5f004f090329ec14b5f49015,5df35eebc12a3623d578f307,5f005ccdafb92f000c028644,False,0.42,0.0,881.1500000301749,j,f,test,0.0,,
,p5feedback,76,175325,0.0-5.0-1.35,5f004f090329ec14b5f49015,5df35eebc12a3623d578f307,5f005ccdafb92f000c028644,False,0.42,,,,,,,,
,p5card,77,178239,0.0-5.0-0.36,5f004f090329ec14b5f49015,5df35eebc12a3623d578f307,5f005ccdafb92f000c028644,False,0.42,1.0,647.0700001809746,j,j,test,1.0,,
,p5feedback,78,180416,0.0-5.0-1.36,5f004f090329ec14b5f49015,5df35eebc12a3623d578f307,5f005ccdafb92f000c028644,False,0.42,,,,,,,,
,p5card,79,183489,0.0-5.0-0.37,5f004f090329ec14b5f49015,5df35eebc12a3623d578f307,5f005ccdafb92f000c028644,False,0.42,0.0,566.0949999000877,j,f,test,0.0,,
,p5feedback,80,184311,0.0-5.0-1.37,5f004f090329ec14b5f49015,5df35eebc12a3623d578f307,5f005ccdafb92f000c028644,False,0.42,,,,,,,,
,p5card,81,187538,0.0-5.0-0.38,5f004f090329ec14b5f49015,5df35eebc12a3623d578f307,5f005ccdafb92f000c028644,False,0.42,1.0,962.4300000723451,f,j,test,0.0,,
,p5feedback,82,188018,0.0-5.0-1.38,5f004f090329ec14b5f49015,5df35eebc12a3623d578f307,5f005ccdafb92f000c028644,False,0.42,,,,,,,,
,p5card,83,191638,0.0-5.0-0.39,5f004f090329ec14b5f49015,5df35eebc12a3623d578f307,5f005ccdafb92f000c028644,False,0.42,0.0,1264.4950000103563,j,f,test,0.0,,
,p5feedback,84,192293,0.0-5.0-1.39,5f004f090329ec14b5f49015,5df35eebc12a3623d578f307,5f005ccdafb92f000c028644,False,0.42,,,,,,,,
,p5card,85,194954,0.0-5.0-0.40,5f004f090329ec14b5f49015,5df35eebc12a3623d578f307,5f005ccdafb92f000c028644,False,0.42,0.0,400.7499997969717,j,f,test,0.0,,
,p5feedback,86,195607,0.0-5.0-1.40,5f004f090329ec14b5f49015,5df35eebc12a3623d578f307,5f005ccdafb92f000c028644,False,0.42,,,,,,,,
,p5card,87,198304,0.0-5.0-0.41,5f004f090329ec14b5f49015,5df35eebc12a3623d578f307,5f005ccdafb92f000c028644,False,0.42,1.0,387.275000102818,j,j,test,1.0,,
,p5feedback,88,199432,0.0-5.0-1.41,5f004f090329ec14b5f49015,5df35eebc12a3623d578f307,5f005ccdafb92f000c028644,False,0.42,,,,,,,,
,p5card,89,202537,0.0-5.0-0.42,5f004f090329ec14b5f49015,5df35eebc12a3623d578f307,5f005ccdafb92f000c028644,False,0.42,1.0,801.6700001899153,f,j,test,0.0,,
,p5feedback,90,203607,0.0-5.0-1.42,5f004f090329ec14b5f49015,5df35eebc12a3623d578f307,5f005ccdafb92f000c028644,False,0.42,,,,,,,,
,p5card,91,206037,0.0-5.0-0.43,5f004f090329ec14b5f49015,5df35eebc12a3623d578f307,5f005ccdafb92f000c028644,False,0.42,0.0,132.3500000871718,j,f,test,0.0,,
,p5feedback,92,206830,0.0-5.0-1.43,5f004f090329ec14b5f49015,5df35eebc12a3623d578f307,5f005ccdafb92f000c028644,False,0.42,,,,,,,,
,p5card,93,209536,0.0-5.0-0.44,5f004f090329ec14b5f49015,5df35eebc12a3623d578f307,5f005ccdafb92f000c028644,False,0.42,0.0,420.32000003382564,j,f,test,0.0,,
,p5feedback,94,210364,0.0-5.0-1.44,5f004f090329ec14b5f49015,5df35eebc12a3623d578f307,5f005ccdafb92f000c028644,False,0.42,,,,,,,,
,p5card,95,216119,0.0-5.0-0.45,5f004f090329ec14b5f49015,5df35eebc12a3623d578f307,5f005ccdafb92f000c028644,False,0.42,1.0,3438.524999888614,j,j,test,1.0,,
,p5feedback,96,218020,0.0-5.0-1.45,5f004f090329ec14b5f49015,5df35eebc12a3623d578f307,5f005ccdafb92f000c028644,False,0.42,,,,,,,,
,p5card,97,220819,0.0-5.0-0.46,5f004f090329ec14b5f49015,5df35eebc12a3623d578f307,5f005ccdafb92f000c028644,False,0.42,0.0,475.5349999759346,f,f,test,1.0,,
,p5feedback,98,221511,0.0-5.0-1.46,5f004f090329ec14b5f49015,5df35eebc12a3623d578f307,5f005ccdafb92f000c028644,False,0.42,,,,,,,,
,p5card,99,224552,0.0-5.0-0.47,5f004f090329ec14b5f49015,5df35eebc12a3623d578f307,5f005ccdafb92f000c028644,False,0.42,1.0,696.9250000547618,j,j,test,1.0,,
,p5feedback,100,224998,0.0-5.0-1.47,5f004f090329ec14b5f49015,5df35eebc12a3623d578f307,5f005ccdafb92f000c028644,False,0.42,,,,,,,,
,p5card,101,228003,0.0-5.0-0.48,5f004f090329ec14b5f49015,5df35eebc12a3623d578f307,5f005ccdafb92f000c028644,False,0.42,1.0,675.2199998591095,f,j,test,0.0,,
,p5feedback,102,228548,0.0-5.0-1.48,5f004f090329ec14b5f49015,5df35eebc12a3623d578f307,5f005ccdafb92f000c028644,False,0.42,,,,,,,,
,p5card,103,231470,0.0-5.0-0.49,5f004f090329ec14b5f49015,5df35eebc12a3623d578f307,5f005ccdafb92f000c028644,False,0.42,0.0,611.5999999456108,j,f,test,0.0,,
,p5feedback,104,232008,0.0-5.0-1.49,5f004f090329ec14b5f49015,5df35eebc12a3623d578f307,5f005ccdafb92f000c028644,False,0.42,,,,,,,,
,p5card,105,234802,0.0-5.0-0.50,5f004f090329ec14b5f49015,5df35eebc12a3623d578f307,5f005ccdafb92f000c028644,False,0.42,0.0,424.88500010222197,j,f,test,0.0,,
,p5feedback,106,235715,0.0-5.0-1.50,5f004f090329ec14b5f49015,5df35eebc12a3623d578f307,5f005ccdafb92f000c028644,False,0.42,,,,,,,,
,p5card,107,238135,0.0-5.0-0.51,5f004f090329ec14b5f49015,5df35eebc12a3623d578f307,5f005ccdafb92f000c028644,False,0.42,1.0,81.98000001721084,j,j,test,1.0,,
,p5feedback,108,239027,0.0-5.0-1.51,5f004f090329ec14b5f49015,5df35eebc12a3623d578f307,5f005ccdafb92f000c028644,False,0.42,,,,,,,,
,p5card,109,241801,0.0-5.0-0.52,5f004f090329ec14b5f49015,5df35eebc12a3623d578f307,5f005ccdafb92f000c028644,False,0.42,1.0,425.71499990299344,f,j,test,0.0,,
,p5feedback,110,243326,0.0-5.0-1.52,5f004f090329ec14b5f49015,5df35eebc12a3623d578f307,5f005ccdafb92f000c028644,False,0.42,,,,,,,,
,p5card,111,246051,0.0-5.0-0.53,5f004f090329ec14b5f49015,5df35eebc12a3623d578f307,5f005ccdafb92f000c028644,False,0.42,0.0,459.3299999833107,j,f,test,0.0,,
,p5feedback,112,246676,0.0-5.0-1.53,5f004f090329ec14b5f49015,5df35eebc12a3623d578f307,5f005ccdafb92f000c028644,False,0.42,,,,,,,,
,p5card,113,249584,0.0-5.0-0.54,5f004f090329ec14b5f49015,5df35eebc12a3623d578f307,5f005ccdafb92f000c028644,False,0.42,1.0,297.1499999985099,j,j,test,1.0,,
,p5feedback,114,249954,0.0-5.0-1.54,5f004f090329ec14b5f49015,5df35eebc12a3623d578f307,5f005ccdafb92f000c028644,False,0.42,,,,,,,,
,p5card,115,252734,0.0-5.0-0.55,5f004f090329ec14b5f49015,5df35eebc12a3623d578f307,5f005ccdafb92f000c028644,False,0.42,0.0,412.0950000360608,j,f,test,0.0,,
,p5feedback,116,253304,0.0-5.0-1.55,5f004f090329ec14b5f49015,5df35eebc12a3623d578f307,5f005ccdafb92f000c028644,False,0.42,,,,,,,,
,p5card,117,256067,0.0-5.0-0.56,5f004f090329ec14b5f49015,5df35eebc12a3623d578f307,5f005ccdafb92f000c028644,False,0.42,0.0,392.4800001550466,j,f,test,0.0,,
,p5feedback,118,256481,0.0-5.0-1.56,5f004f090329ec14b5f49015,5df35eebc12a3623d578f307,5f005ccdafb92f000c028644,False,0.42,,,,,,,,
,p5card,119,258949,0.0-5.0-0.57,5f004f090329ec14b5f49015,5df35eebc12a3623d578f307,5f005ccdafb92f000c028644,False,0.42,1.0,113.16499998793006,j,j,test,1.0,,
,p5feedback,120,259454,0.0-5.0-1.57,5f004f090329ec14b5f49015,5df35eebc12a3623d578f307,5f005ccdafb92f000c028644,False,0.42,,,,,,,,
,p5card,121,263916,0.0-5.0-0.58,5f004f090329ec14b5f49015,5df35eebc12a3623d578f307,5f005ccdafb92f000c028644,False,0.42,0.0,2109.574999893084,j,f,test,0.0,,
,p5feedback,122,264477,0.0-5.0-1.58,5f004f090329ec14b5f49015,5df35eebc12a3623d578f307,5f005ccdafb92f000c028644,False,0.42,,,,,,,,
,p5card,123,267282,0.0-5.0-0.59,5f004f090329ec14b5f49015,5df35eebc12a3623d578f307,5f005ccdafb92f000c028644,False,0.42,1.0,460.1849999744445,j,j,test,1.0,,
,p5feedback,124,267567,0.0-5.0-1.59,5f004f090329ec14b5f49015,5df35eebc12a3623d578f307,5f005ccdafb92f000c028644,False,0.42,,,,,,,,
,p5card,125,270032,0.0-5.0-0.60,5f004f090329ec14b5f49015,5df35eebc12a3623d578f307,5f005ccdafb92f000c028644,False,0.42,0.0,137.70500011742115,j,f,test,0.0,,
,p5feedback,126,270731,0.0-5.0-1.60,5f004f090329ec14b5f49015,5df35eebc12a3623d578f307,5f005ccdafb92f000c028644,False,0.42,,,,,,,,
,p5card,127,273448,0.0-5.0-0.61,5f004f090329ec14b5f49015,5df35eebc12a3623d578f307,5f005ccdafb92f000c028644,False,0.42,1.0,410.5199999175966,j,j,test,1.0,,
,p5feedback,128,276305,0.0-5.0-1.61,5f004f090329ec14b5f49015,5df35eebc12a3623d578f307,5f005ccdafb92f000c028644,False,0.42,,,,,,,,
,p5card,129,278981,0.0-5.0-0.62,5f004f090329ec14b5f49015,5df35eebc12a3623d578f307,5f005ccdafb92f000c028644,False,0.42,0.0,356.71500000171363,f,f,test,1.0,,
,p5feedback,130,280400,0.0-5.0-1.62,5f004f090329ec14b5f49015,5df35eebc12a3623d578f307,5f005ccdafb92f000c028644,False,0.42,,,,,,,,
,p5card,131,283131,0.0-5.0-0.63,5f004f090329ec14b5f49015,5df35eebc12a3623d578f307,5f005ccdafb92f000c028644,False,0.42,1.0,399.2700001690537,j,j,test,1.0,,
,p5feedback,132,284166,0.0-5.0-1.63,5f004f090329ec14b5f49015,5df35eebc12a3623d578f307,5f005ccdafb92f000c028644,False,0.42,,,,,,,,
,p5card,133,286981,0.0-5.0-0.64,5f004f090329ec14b5f49015,5df35eebc12a3623d578f307,5f005ccdafb92f000c028644,False,0.42,0.0,416.6249998379499,j,f,test,0.0,,
,p5feedback,134,287540,0.0-5.0-1.64,5f004f090329ec14b5f49015,5df35eebc12a3623d578f307,5f005ccdafb92f000c028644,False,0.42,,,,,,,,
,p5card,135,290314,0.0-5.0-0.65,5f004f090329ec14b5f49015,5df35eebc12a3623d578f307,5f005ccdafb92f000c028644,False,0.42,1.0,366.7000001296401,j,j,test,1.0,,
,p5feedback,136,290322,0.0-5.0-1.65,5f004f090329ec14b5f49015,5df35eebc12a3623d578f307,5f005ccdafb92f000c028644,False,0.42,,,,,,,,
,p5card,137,292980,0.0-5.0-0.66,5f004f090329ec14b5f49015,5df35eebc12a3623d578f307,5f005ccdafb92f000c028644,False,0.42,1.0,343.7149999663234,f,j,test,0.0,,
,p5feedback,138,293316,0.0-5.0-1.66,5f004f090329ec14b5f49015,5df35eebc12a3623d578f307,5f005ccdafb92f000c028644,False,0.42,,,,,,,,
,p5card,139,295730,0.0-5.0-0.67,5f004f090329ec14b5f49015,5df35eebc12a3623d578f307,5f005ccdafb92f000c028644,False,0.42,0.0,107.7949998434633,j,f,test,0.0,,
,p5feedback,140,296208,0.0-5.0-1.67,5f004f090329ec14b5f49015,5df35eebc12a3623d578f307,5f005ccdafb92f000c028644,False,0.42,,,,,,,,
,p5card,141,299863,0.0-5.0-0.68,5f004f090329ec14b5f49015,5df35eebc12a3623d578f307,5f005ccdafb92f000c028644,False,0.42,1.0,1351.425000000745,j,j,test,1.0,,
,p5feedback,142,300420,0.0-5.0-1.68,5f004f090329ec14b5f49015,5df35eebc12a3623d578f307,5f005ccdafb92f000c028644,False,0.42,,,,,,,,
,p5card,143,303497,0.0-5.0-0.69,5f004f090329ec14b5f49015,5df35eebc12a3623d578f307,5f005ccdafb92f000c028644,False,0.42,0.0,776.6249999403954,j,f,test,0.0,,
,p5feedback,144,304015,0.0-5.0-1.69,5f004f090329ec14b5f49015,5df35eebc12a3623d578f307,5f005ccdafb92f000c028644,False,0.42,,,,,,,,
,p5card,145,308370,0.0-5.0-0.70,5f004f090329ec14b5f49015,5df35eebc12a3623d578f307,5f005ccdafb92f000c028644,False,0.42,0.0,2011.5149999037385,j,f,test,0.0,,
,p5feedback,146,309920,0.0-5.0-1.70,5f004f090329ec14b5f49015,5df35eebc12a3623d578f307,5f005ccdafb92f000c028644,False,0.42,,,,,,,,
,p5card,147,312762,0.0-5.0-0.71,5f004f090329ec14b5f49015,5df35eebc12a3623d578f307,5f005ccdafb92f000c028644,False,0.42,1.0,381.79500005207956,j,j,test,1.0,,
,p5feedback,148,313527,0.0-5.0-1.71,5f004f090329ec14b5f49015,5df35eebc12a3623d578f307,5f005ccdafb92f000c028644,False,0.42,,,,,,,,
,p5card,149,316729,0.0-5.0-0.72,5f004f090329ec14b5f49015,5df35eebc12a3623d578f307,5f005ccdafb92f000c028644,False,0.42,1.0,940.5399998649955,f,j,test,0.0,,
,p5feedback,150,317071,0.0-5.0-1.72,5f004f090329ec14b5f49015,5df35eebc12a3623d578f307,5f005ccdafb92f000c028644,False,0.42,,,,,,,,
,p5card,151,331244,0.0-5.0-0.73,5f004f090329ec14b5f49015,5df35eebc12a3623d578f307,5f005ccdafb92f000c028644,False,0.42,0.0,11837.189999874681,j,f,test,0.0,,
,p5feedback,152,332632,0.0-5.0-1.73,5f004f090329ec14b5f49015,5df35eebc12a3623d578f307,5f005ccdafb92f000c028644,False,0.42,,,,,,,,
,p5card,153,336111,0.0-5.0-0.74,5f004f090329ec14b5f49015,5df35eebc12a3623d578f307,5f005ccdafb92f000c028644,False,0.42,1.0,1203.914999961853,f,j,test,0.0,,
,p5feedback,154,338485,0.0-5.0-1.74,5f004f090329ec14b5f49015,5df35eebc12a3623d578f307,5f005ccdafb92f000c028644,False,0.42,,,,,,,,
,p5card,155,341743,0.0-5.0-0.75,5f004f090329ec14b5f49015,5df35eebc12a3623d578f307,5f005ccdafb92f000c028644,False,0.42,0.0,376.74999982118607,f,f,test,1.0,,
,p5feedback,156,342219,0.0-5.0-1.75,5f004f090329ec14b5f49015,5df35eebc12a3623d578f307,5f005ccdafb92f000c028644,False,0.42,,,,,,,,
,p5card,157,346026,0.0-5.0-0.76,5f004f090329ec14b5f49015,5df35eebc12a3623d578f307,5f005ccdafb92f000c028644,False,0.42,0.0,1290.335000026971,j,f,test,0.0,,
,p5feedback,158,346388,0.0-5.0-1.76,5f004f090329ec14b5f49015,5df35eebc12a3623d578f307,5f005ccdafb92f000c028644,False,0.42,,,,,,,,
,p5card,159,349493,0.0-5.0-0.77,5f004f090329ec14b5f49015,5df35eebc12a3623d578f307,5f005ccdafb92f000c028644,False,0.42,1.0,750.5550000350922,j,j,test,1.0,,
,p5feedback,160,349942,0.0-5.0-1.77,5f004f090329ec14b5f49015,5df35eebc12a3623d578f307,5f005ccdafb92f000c028644,False,0.42,,,,,,,,
,p5card,161,352742,0.0-5.0-0.78,5f004f090329ec14b5f49015,5df35eebc12a3623d578f307,5f005ccdafb92f000c028644,False,0.42,1.0,480.9949998743832,j,j,test,1.0,,
,p5feedback,162,355653,0.0-5.0-1.78,5f004f090329ec14b5f49015,5df35eebc12a3623d578f307,5f005ccdafb92f000c028644,False,0.42,,,,,,,,
,p5card,163,358675,0.0-5.0-0.79,5f004f090329ec14b5f49015,5df35eebc12a3623d578f307,5f005ccdafb92f000c028644,False,0.42,0.0,678.0450001824647,f,f,test,1.0,,
,p5feedback,164,359565,0.0-5.0-1.79,5f004f090329ec14b5f49015,5df35eebc12a3623d578f307,5f005ccdafb92f000c028644,False,0.42,,,,,,,,
,p5card,165,363274,0.0-5.0-0.80,5f004f090329ec14b5f49015,5df35eebc12a3623d578f307,5f005ccdafb92f000c028644,False,0.42,1.0,1381.5250000916421,j,j,test,1.0,,
,p5feedback,166,364860,0.0-5.0-1.80,5f004f090329ec14b5f49015,5df35eebc12a3623d578f307,5f005ccdafb92f000c028644,False,0.42,,,,,,,,
,p5card,167,367724,0.0-5.0-0.81,5f004f090329ec14b5f49015,5df35eebc12a3623d578f307,5f005ccdafb92f000c028644,False,0.42,0.0,410.08999990299344,j,f,test,0.0,,
,p5feedback,168,369226,0.0-5.0-1.81,5f004f090329ec14b5f49015,5df35eebc12a3623d578f307,5f005ccdafb92f000c028644,False,0.42,,,,,,,,
,p5card,169,371891,0.0-5.0-0.82,5f004f090329ec14b5f49015,5df35eebc12a3623d578f307,5f005ccdafb92f000c028644,False,0.42,1.0,381.92000007256866,f,j,test,0.0,,
,p5feedback,170,371950,0.0-5.0-1.82,5f004f090329ec14b5f49015,5df35eebc12a3623d578f307,5f005ccdafb92f000c028644,False,0.42,,,,,,,,
,p5card,171,374390,0.0-5.0-0.83,5f004f090329ec14b5f49015,5df35eebc12a3623d578f307,5f005ccdafb92f000c028644,False,0.42,0.0,109.62000000290573,j,f,test,0.0,,
,p5feedback,172,374992,0.0-5.0-1.83,5f004f090329ec14b5f49015,5df35eebc12a3623d578f307,5f005ccdafb92f000c028644,False,0.42,,,,,,,,
,p5card,173,377640,0.0-5.0-0.84,5f004f090329ec14b5f49015,5df35eebc12a3623d578f307,5f005ccdafb92f000c028644,False,0.42,1.0,367.15999990701675,j,j,test,1.0,,
,p5feedback,174,378071,0.0-5.0-1.84,5f004f090329ec14b5f49015,5df35eebc12a3623d578f307,5f005ccdafb92f000c028644,False,0.42,,,,,,,,
,p5card,175,380891,0.0-5.0-0.85,5f004f090329ec14b5f49015,5df35eebc12a3623d578f307,5f005ccdafb92f000c028644,False,0.42,0.0,455.3000000305474,j,f,test,0.0,,
,p5feedback,176,382188,0.0-5.0-1.85,5f004f090329ec14b5f49015,5df35eebc12a3623d578f307,5f005ccdafb92f000c028644,False,0.42,,,,,,,,
,p5card,177,384640,0.0-5.0-0.86,5f004f090329ec14b5f49015,5df35eebc12a3623d578f307,5f005ccdafb92f000c028644,False,0.42,0.0,154.8549998551607,j,f,test,0.0,,
,p5feedback,178,385964,0.0-5.0-1.86,5f004f090329ec14b5f49015,5df35eebc12a3623d578f307,5f005ccdafb92f000c028644,False,0.42,,,,,,,,
,p5card,179,388655,0.0-5.0-0.87,5f004f090329ec14b5f49015,5df35eebc12a3623d578f307,5f005ccdafb92f000c028644,False,0.42,1.0,434.9950000178069,j,j,test,1.0,,
,p5feedback,180,389331,0.0-5.0-1.87,5f004f090329ec14b5f49015,5df35eebc12a3623d578f307,5f005ccdafb92f000c028644,False,0.42,,,,,,,,
,p5card,181,392239,0.0-5.0-0.88,5f004f090329ec14b5f49015,5df35eebc12a3623d578f307,5f005ccdafb92f000c028644,False,0.42,0.0,591.4500001817942,j,f,test,0.0,,
,p5feedback,182,392661,0.0-5.0-1.88,5f004f090329ec14b5f49015,5df35eebc12a3623d578f307,5f005ccdafb92f000c028644,False,0.42,,,,,,,,
,p5card,183,395505,0.0-5.0-0.89,5f004f090329ec14b5f49015,5df35eebc12a3623d578f307,5f005ccdafb92f000c028644,False,0.42,1.0,543.6799998860806,j,j,test,1.0,,
,p5feedback,184,397486,0.0-5.0-1.89,5f004f090329ec14b5f49015,5df35eebc12a3623d578f307,5f005ccdafb92f000c028644,False,0.42,,,,,,,,
,survey-text,185,412485,0.0-6.0,5f004f090329ec14b5f49015,5df35eebc12a3623d578f307,5f005ccdafb92f000c028644,False,0.42,,,,,,,14993.650000076741,"{""best_guess"":"" i think it was random""}"
,survey-text,186,416620,0.0-7.0,5f004f090329ec14b5f49015,5df35eebc12a3623d578f307,5f005ccdafb92f000c028644,False,0.42,,,,,,,4133.184999926016,"{""worker_comments"":""""}"
,p5Text,187,419780,0.0-8.0,5f004f090329ec14b5f49015,5df35eebc12a3623d578f307,5f005ccdafb92f000c028644,False,0.42,,,,,,,,
1.0,fullscreen,0,7478,0.0-0.0,5f004f090329ec14b5f49015,5dafea4de40355001651fa2f,5f005dac0658791610d422c3,False,0.43,,,,,,,,
,p5Text,1,14008,0.0-1.0,5f004f090329ec14b5f49015,5dafea4de40355001651fa2f,5f005dac0658791610d422c3,False,0.43,,,,,,,,
,p5Text,2,15649,0.0-2.0,5f004f090329ec14b5f49015,5dafea4de40355001651fa2f,5f005dac0658791610d422c3,False,0.43,,,,,,,,
,p5Text,3,40574,0.0-3.0,5f004f090329ec14b5f49015,5dafea4de40355001651fa2f,5f005dac0658791610d422c3,False,0.43,,,,,,,,
,p5Text,4,46429,0.0-4.0,5f004f090329ec14b5f49015,5dafea4de40355001651fa2f,5f005dac0658791610d422c3,False,0.43,,,,,,,,
,p5card,5,51901,0.0-5.0-0.0,5f004f090329ec14b5f49015,5dafea4de40355001651fa2f,5f005dac0658791610d422c3,False,0.43,1.0,,,j,test,,,
,p5feedback,6,54296,0.0-5.0-1.0,5f004f090329ec14b5f49015,5dafea4de40355001651fa2f,5f005dac0658791610d422c3,False,0.43,,,,,,,,
,p5card,7,57509,0.0-5.0-0.1,5f004f090329ec14b5f49015,5dafea4de40355001651fa2f,5f005dac0658791610d422c3,False,0.43,0.0,760.6649999506772,j,f,test,0.0,,
,p5feedback,8,60922,0.0-5.0-1.1,5f004f090329ec14b5f49015,5dafea4de40355001651fa2f,5f005dac0658791610d422c3,False,0.43,,,,,,,,
,p5card,9,63969,0.0-5.0-0.2,5f004f090329ec14b5f49015,5dafea4de40355001651fa2f,5f005dac0658791610d422c3,False,0.43,0.0,664.7700001485646,f,f,test,1.0,,
,p5feedback,10,65217,0.0-5.0-1.2,5f004f090329ec14b5f49015,5dafea4de40355001651fa2f,5f005dac0658791610d422c3,False,0.43,,,,,,,,
,p5card,11,68107,0.0-5.0-0.3,5f004f090329ec14b5f49015,5dafea4de40355001651fa2f,5f005dac0658791610d422c3,False,0.43,1.0,430.5400000885129,j,j,test,1.0,,
,p5feedback,12,71208,0.0-5.0-1.3,5f004f090329ec14b5f49015,5dafea4de40355001651fa2f,5f005dac0658791610d422c3,False,0.43,,,,,,,,
,p5card,13,77989,0.0-5.0-0.4,5f004f090329ec14b5f49015,5dafea4de40355001651fa2f,5f005dac0658791610d422c3,False,0.43,0.0,4259.564999956638,j,f,test,0.0,,
,p5feedback,14,79615,0.0-5.0-1.4,5f004f090329ec14b5f49015,5dafea4de40355001651fa2f,5f005dac0658791610d422c3,False,0.43,,,,,,,,
,p5card,15,97330,0.0-5.0-0.5,5f004f090329ec14b5f49015,5dafea4de40355001651fa2f,5f005dac0658791610d422c3,False,0.43,1.0,15184.439999982715,j,j,test,1.0,,
,p5feedback,16,99044,0.0-5.0-1.5,5f004f090329ec14b5f49015,5dafea4de40355001651fa2f,5f005dac0658791610d422c3,False,0.43,,,,,,,,
,p5card,17,107529,0.0-5.0-0.6,5f004f090329ec14b5f49015,5dafea4de40355001651fa2f,5f005dac0658791610d422c3,False,0.43,1.0,6074.264999944717,j,j,test,1.0,,
,p5feedback,18,109123,0.0-5.0-1.6,5f004f090329ec14b5f49015,5dafea4de40355001651fa2f,5f005dac0658791610d422c3,False,0.43,,,,,,,,
,p5card,19,112235,0.0-5.0-0.7,5f004f090329ec14b5f49015,5dafea4de40355001651fa2f,5f005dac0658791610d422c3,False,0.43,0.0,611.8600000627339,f,f,test,1.0,,
,p5feedback,20,113846,0.0-5.0-1.7,5f004f090329ec14b5f49015,5dafea4de40355001651fa2f,5f005dac0658791610d422c3,False,0.43,,,,,,,,
,p5card,21,117159,0.0-5.0-0.8,5f004f090329ec14b5f49015,5dafea4de40355001651fa2f,5f005dac0658791610d422c3,False,0.43,0.0,518.2900000363588,j,f,test,0.0,,
,p5feedback,22,118517,0.0-5.0-1.8,5f004f090329ec14b5f49015,5dafea4de40355001651fa2f,5f005dac0658791610d422c3,False,0.43,,,,,,,,
,p5card,23,123266,0.0-5.0-0.9,5f004f090329ec14b5f49015,5dafea4de40355001651fa2f,5f005dac0658791610d422c3,False,0.43,1.0,2305.0349997356534,j,j,test,1.0,,
,p5feedback,24,125444,0.0-5.0-1.9,5f004f090329ec14b5f49015,5dafea4de40355001651fa2f,5f005dac0658791610d422c3,False,0.43,,,,,,,,
,p5card,25,128507,0.0-5.0-0.10,5f004f090329ec14b5f49015,5dafea4de40355001651fa2f,5f005dac0658791610d422c3,False,0.43,0.0,627.660000231117,f,f,test,1.0,,
,p5feedback,26,131592,0.0-5.0-1.10,5f004f090329ec14b5f49015,5dafea4de40355001651fa2f,5f005dac0658791610d422c3,False,0.43,,,,,,,,
,p5card,27,134682,0.0-5.0-0.11,5f004f090329ec14b5f49015,5dafea4de40355001651fa2f,5f005dac0658791610d422c3,False,0.43,1.0,619.6050001308322,f,j,test,0.0,,
,p5feedback,28,136045,0.0-5.0-1.11,5f004f090329ec14b5f49015,5dafea4de40355001651fa2f,5f005dac0658791610d422c3,False,0.43,,,,,,,,
,p5card,29,139288,0.0-5.0-0.12,5f004f090329ec14b5f49015,5dafea4de40355001651fa2f,5f005dac0658791610d422c3,False,0.43,1.0,833.4349999204278,f,j,test,0.0,,
,p5feedback,30,140403,0.0-5.0-1.12,5f004f090329ec14b5f49015,5dafea4de40355001651fa2f,5f005dac0658791610d422c3,False,0.43,,,,,,,,
,p5card,31,143362,0.0-5.0-0.13,5f004f090329ec14b5f49015,5dafea4de40355001651fa2f,5f005dac0658791610d422c3,False,0.43,0.0,585.2200002409518,f,f,test,1.0,,
,p5feedback,32,144896,0.0-5.0-1.13,5f004f090329ec14b5f49015,5dafea4de40355001651fa2f,5f005dac0658791610d422c3,False,0.43,,,,,,,,
,p5card,33,148185,0.0-5.0-0.14,5f004f090329ec14b5f49015,5dafea4de40355001651fa2f,5f005dac0658791610d422c3,False,0.43,1.0,696.1349998600781,j,j,test,1.0,,
,p5feedback,34,149570,0.0-5.0-1.14,5f004f090329ec14b5f49015,5dafea4de40355001651fa2f,5f005dac0658791610d422c3,False,0.43,,,,,,,,
,p5card,35,152659,0.0-5.0-0.15,5f004f090329ec14b5f49015,5dafea4de40355001651fa2f,5f005dac0658791610d422c3,False,0.43,0.0,646.5799999423325,f,f,test,1.0,,
,p5feedback,36,154202,0.0-5.0-1.15,5f004f090329ec14b5f49015,5dafea4de40355001651fa2f,5f005dac0658791610d422c3,False,0.43,,,,,,,,
,p5card,37,157464,0.0-5.0-0.16,5f004f090329ec14b5f49015,5dafea4de40355001651fa2f,5f005dac0658791610d422c3,False,0.43,1.0,779.0599996224046,f,j,test,0.0,,
,p5feedback,38,158742,0.0-5.0-1.16,5f004f090329ec14b5f49015,5dafea4de40355001651fa2f,5f005dac0658791610d422c3,False,0.43,,,,,,,,
,p5card,39,161720,0.0-5.0-0.17,5f004f090329ec14b5f49015,5dafea4de40355001651fa2f,5f005dac0658791610d422c3,False,0.43,0.0,583.3799997344613,j,f,test,0.0,,
,p5feedback,40,162750,0.0-5.0-1.17,5f004f090329ec14b5f49015,5dafea4de40355001651fa2f,5f005dac0658791610d422c3,False,0.43,,,,,,,,
,p5card,41,165710,0.0-5.0-0.18,5f004f090329ec14b5f49015,5dafea4de40355001651fa2f,5f005dac0658791610d422c3,False,0.43,0.0,540.3599999845028,f,f,test,1.0,,
,p5feedback,42,167120,0.0-5.0-1.18,5f004f090329ec14b5f49015,5dafea4de40355001651fa2f,5f005dac0658791610d422c3,False,0.43,,,,,,,,
,p5card,43,170382,0.0-5.0-0.19,5f004f090329ec14b5f49015,5dafea4de40355001651fa2f,5f005dac0658791610d422c3,False,0.43,1.0,857.7299998141825,f,j,test,0.0,,
,p5feedback,44,171193,0.0-5.0-1.19,5f004f090329ec14b5f49015,5dafea4de40355001651fa2f,5f005dac0658791610d422c3,False,0.43,,,,,,,,
,p5card,45,174238,0.0-5.0-0.20,5f004f090329ec14b5f49015,5dafea4de40355001651fa2f,5f005dac0658791610d422c3,False,0.43,0.0,610.3499997407198,j,f,test,0.0,,
,p5feedback,46,175065,0.0-5.0-1.20,5f004f090329ec14b5f49015,5dafea4de40355001651fa2f,5f005dac0658791610d422c3,False,0.43,,,,,,,,
,p5card,47,177992,0.0-5.0-0.21,5f004f090329ec14b5f49015,5dafea4de40355001651fa2f,5f005dac0658791610d422c3,False,0.43,1.0,598.2450000010431,f,j,test,0.0,,
,p5feedback,48,179028,0.0-5.0-1.21,5f004f090329ec14b5f49015,5dafea4de40355001651fa2f,5f005dac0658791610d422c3,False,0.43,,,,,,,,
,p5card,49,182014,0.0-5.0-0.22,5f004f090329ec14b5f49015,5dafea4de40355001651fa2f,5f005dac0658791610d422c3,False,0.43,0.0,400.859999936074,f,f,test,1.0,,
,p5feedback,50,183451,0.0-5.0-1.22,5f004f090329ec14b5f49015,5dafea4de40355001651fa2f,5f005dac0658791610d422c3,False,0.43,,,,,,,,
,p5card,51,186505,0.0-5.0-0.23,5f004f090329ec14b5f49015,5dafea4de40355001651fa2f,5f005dac0658791610d422c3,False,0.43,1.0,666.9049998745322,f,j,test,0.0,,
,p5feedback,52,187547,0.0-5.0-1.23,5f004f090329ec14b5f49015,5dafea4de40355001651fa2f,5f005dac0658791610d422c3,False,0.43,,,,,,,,
,p5card,53,190994,0.0-5.0-0.24,5f004f090329ec14b5f49015,5dafea4de40355001651fa2f,5f005dac0658791610d422c3,False,0.43,1.0,838.8649998232722,j,j,test,1.0,,
,p5feedback,54,192309,0.0-5.0-1.24,5f004f090329ec14b5f49015,5dafea4de40355001651fa2f,5f005dac0658791610d422c3,False,0.43,,,,,,,,
,p5card,55,195266,0.0-5.0-0.25,5f004f090329ec14b5f49015,5dafea4de40355001651fa2f,5f005dac0658791610d422c3,False,0.43,0.0,518.9149999059737,f,f,test,1.0,,
,p5feedback,56,197065,0.0-5.0-1.25,5f004f090329ec14b5f49015,5dafea4de40355001651fa2f,5f005dac0658791610d422c3,False,0.43,,,,,,,,
,p5card,57,200205,0.0-5.0-0.26,5f004f090329ec14b5f49015,5dafea4de40355001651fa2f,5f005dac0658791610d422c3,False,0.43,1.0,626.2749996967614,f,j,test,0.0,,
,p5feedback,58,201465,0.0-5.0-1.26,5f004f090329ec14b5f49015,5dafea4de40355001651fa2f,5f005dac0658791610d422c3,False,0.43,,,,,,,,
,p5card,59,204611,0.0-5.0-0.27,5f004f090329ec14b5f49015,5dafea4de40355001651fa2f,5f005dac0658791610d422c3,False,0.43,0.0,600.5299999378622,f,f,test,1.0,,
,p5feedback,60,206559,0.0-5.0-1.27,5f004f090329ec14b5f49015,5dafea4de40355001651fa2f,5f005dac0658791610d422c3,False,0.43,,,,,,,,
,p5card,61,209618,0.0-5.0-0.28,5f004f090329ec14b5f49015,5dafea4de40355001651fa2f,5f005dac0658791610d422c3,False,0.43,1.0,456.18500001728535,f,j,test,0.0,,
,p5feedback,62,211372,0.0-5.0-1.28,5f004f090329ec14b5f49015,5dafea4de40355001651fa2f,5f005dac0658791610d422c3,False,0.43,,,,,,,,
,p5card,63,214459,0.0-5.0-0.29,5f004f090329ec14b5f49015,5dafea4de40355001651fa2f,5f005dac0658791610d422c3,False,0.43,0.0,613.9549999497831,j,f,test,0.0,,
,p5feedback,64,215469,0.0-5.0-1.29,5f004f090329ec14b5f49015,5dafea4de40355001651fa2f,5f005dac0658791610d422c3,False,0.43,,,,,,,,
,p5card,65,218548,0.0-5.0-0.30,5f004f090329ec14b5f49015,5dafea4de40355001651fa2f,5f005dac0658791610d422c3,False,0.43,1.0,767.8050003014505,j,j,test,1.0,,
,p5feedback,66,219807,0.0-5.0-1.30,5f004f090329ec14b5f49015,5dafea4de40355001651fa2f,5f005dac0658791610d422c3,False,0.43,,,,,,,,
,p5card,67,222887,0.0-5.0-0.31,5f004f090329ec14b5f49015,5dafea4de40355001651fa2f,5f005dac0658791610d422c3,False,0.43,0.0,663.6249995790422,f,f,test,1.0,,
,p5feedback,68,225216,0.0-5.0-1.31,5f004f090329ec14b5f49015,5dafea4de40355001651fa2f,5f005dac0658791610d422c3,False,0.43,,,,,,,,
,p5card,69,228695,0.0-5.0-0.32,5f004f090329ec14b5f49015,5dafea4de40355001651fa2f,5f005dac0658791610d422c3,False,0.43,0.0,379.6899998560548,j,f,test,0.0,,
,p5feedback,70,229536,0.0-5.0-1.32,5f004f090329ec14b5f49015,5dafea4de40355001651fa2f,5f005dac0658791610d422c3,False,0.43,,,,,,,,
,p5card,71,232616,0.0-5.0-0.33,5f004f090329ec14b5f49015,5dafea4de40355001651fa2f,5f005dac0658791610d422c3,False,0.43,1.0,748.0850000865757,f,j,test,0.0,,
,p5feedback,72,233492,0.0-5.0-1.33,5f004f090329ec14b5f49015,5dafea4de40355001651fa2f,5f005dac0658791610d422c3,False,0.43,,,,,,,,
,p5card,73,236388,0.0-5.0-0.34,5f004f090329ec14b5f49015,5dafea4de40355001651fa2f,5f005dac0658791610d422c3,False,0.43,0.0,383.31500021740794,f,f,test,1.0,,
,p5feedback,74,237736,0.0-5.0-1.34,5f004f090329ec14b5f49015,5dafea4de40355001651fa2f,5f005dac0658791610d422c3,False,0.43,,,,,,,,
,p5card,75,241162,0.0-5.0-0.35,5f004f090329ec14b5f49015,5dafea4de40355001651fa2f,5f005dac0658791610d422c3,False,0.43,1.0,957.179999910295,j,j,test,1.0,,
,p5feedback,76,241904,0.0-5.0-1.35,5f004f090329ec14b5f49015,5dafea4de40355001651fa2f,5f005dac0658791610d422c3,False,0.43,,,,,,,,
,p5card,77,245101,0.0-5.0-0.36,5f004f090329ec14b5f49015,5dafea4de40355001651fa2f,5f005dac0658791610d422c3,False,0.43,1.0,733.839999884367,f,j,test,0.0,,
,p5feedback,78,246578,0.0-5.0-1.36,5f004f090329ec14b5f49015,5dafea4de40355001651fa2f,5f005dac0658791610d422c3,False,0.43,,,,,,,,
,p5card,79,249657,0.0-5.0-0.37,5f004f090329ec14b5f49015,5dafea4de40355001651fa2f,5f005dac0658791610d422c3,False,0.43,0.0,497.41500010713935,j,f,test,0.0,,
,p5feedback,80,250098,0.0-5.0-1.37,5f004f090329ec14b5f49015,5dafea4de40355001651fa2f,5f005dac0658791610d422c3,False,0.43,,,,,,,,
,p5card,81,253244,0.0-5.0-0.38,5f004f090329ec14b5f49015,5dafea4de40355001651fa2f,5f005dac0658791610d422c3,False,0.43,0.0,759.4300000928342,f,f,test,1.0,,
,p5feedback,82,254881,0.0-5.0-1.38,5f004f090329ec14b5f49015,5dafea4de40355001651fa2f,5f005dac0658791610d422c3,False,0.43,,,,,,,,
,p5card,83,258052,0.0-5.0-0.39,5f004f090329ec14b5f49015,5dafea4de40355001651fa2f,5f005dac0658791610d422c3,False,0.43,1.0,725.7250002585351,f,j,test,0.0,,
,p5feedback,84,258613,0.0-5.0-1.39,5f004f090329ec14b5f49015,5dafea4de40355001651fa2f,5f005dac0658791610d422c3,False,0.43,,,,,,,,
,p5card,85,261824,0.0-5.0-0.40,5f004f090329ec14b5f49015,5dafea4de40355001651fa2f,5f005dac0658791610d422c3,False,0.43,1.0,681.8800000473857,f,j,test,0.0,,
,p5feedback,86,262635,0.0-5.0-1.40,5f004f090329ec14b5f49015,5dafea4de40355001651fa2f,5f005dac0658791610d422c3,False,0.43,,,,,,,,
,p5card,87,265730,0.0-5.0-0.41,5f004f090329ec14b5f49015,5dafea4de40355001651fa2f,5f005dac0658791610d422c3,False,0.43,0.0,705.2250001579523,j,f,test,0.0,,
,p5feedback,88,266330,0.0-5.0-1.41,5f004f090329ec14b5f49015,5dafea4de40355001651fa2f,5f005dac0658791610d422c3,False,0.43,,,,,,,,
,p5card,89,269535,0.0-5.0-0.42,5f004f090329ec14b5f49015,5dafea4de40355001651fa2f,5f005dac0658791610d422c3,False,0.43,1.0,782.7149997465312,f,j,test,0.0,,
,p5feedback,90,270293,0.0-5.0-1.42,5f004f090329ec14b5f49015,5dafea4de40355001651fa2f,5f005dac0658791610d422c3,False,0.43,,,,,,,,
,p5card,91,273289,0.0-5.0-0.43,5f004f090329ec14b5f49015,5dafea4de40355001651fa2f,5f005dac0658791610d422c3,False,0.43,0.0,622.8650002740324,j,f,test,0.0,,
,p5feedback,92,273836,0.0-5.0-1.43,5f004f090329ec14b5f49015,5dafea4de40355001651fa2f,5f005dac0658791610d422c3,False,0.43,,,,,,,,
,p5card,93,276928,0.0-5.0-0.44,5f004f090329ec14b5f49015,5dafea4de40355001651fa2f,5f005dac0658791610d422c3,False,0.43,0.0,646.5649995952845,j,f,test,0.0,,
,p5feedback,94,277753,0.0-5.0-1.44,5f004f090329ec14b5f49015,5dafea4de40355001651fa2f,5f005dac0658791610d422c3,False,0.43,,,,,,,,
,p5card,95,280666,0.0-5.0-0.45,5f004f090329ec14b5f49015,5dafea4de40355001651fa2f,5f005dac0658791610d422c3,False,0.43,1.0,533.7799997068942,j,j,test,1.0,,
,p5feedback,96,282319,0.0-5.0-1.45,5f004f090329ec14b5f49015,5dafea4de40355001651fa2f,5f005dac0658791610d422c3,False,0.43,,,,,,,,
,p5card,97,285890,0.0-5.0-0.46,5f004f090329ec14b5f49015,5dafea4de40355001651fa2f,5f005dac0658791610d422c3,False,0.43,0.0,1015.8500000834465,j,f,test,0.0,,
,p5feedback,98,286335,0.0-5.0-1.46,5f004f090329ec14b5f49015,5dafea4de40355001651fa2f,5f005dac0658791610d422c3,False,0.43,,,,,,,,
,p5card,99,289395,0.0-5.0-0.47,5f004f090329ec14b5f49015,5dafea4de40355001651fa2f,5f005dac0658791610d422c3,False,0.43,1.0,639.1949998214841,j,j,test,1.0,,
,p5feedback,100,290754,0.0-5.0-1.47,5f004f090329ec14b5f49015,5dafea4de40355001651fa2f,5f005dac0658791610d422c3,False,0.43,,,,,,,,
,p5card,101,293617,0.0-5.0-0.48,5f004f090329ec14b5f49015,5dafea4de40355001651fa2f,5f005dac0658791610d422c3,False,0.43,0.0,437.00999999418855,j,f,test,0.0,,
,p5feedback,102,294461,0.0-5.0-1.48,5f004f090329ec14b5f49015,5dafea4de40355001651fa2f,5f005dac0658791610d422c3,False,0.43,,,,,,,,
,p5card,103,297306,0.0-5.0-0.49,5f004f090329ec14b5f49015,5dafea4de40355001651fa2f,5f005dac0658791610d422c3,False,0.43,1.0,546.9150003045797,j,j,test,1.0,,
,p5feedback,104,298657,0.0-5.0-1.49,5f004f090329ec14b5f49015,5dafea4de40355001651fa2f,5f005dac0658791610d422c3,False,0.43,,,,,,,,
,p5card,105,301596,0.0-5.0-0.50,5f004f090329ec14b5f49015,5dafea4de40355001651fa2f,5f005dac0658791610d422c3,False,0.43,1.0,430.5950002744794,j,j,test,1.0,,
,p5feedback,106,303228,0.0-5.0-1.50,5f004f090329ec14b5f49015,5dafea4de40355001651fa2f,5f005dac0658791610d422c3,False,0.43,,,,,,,,
,p5card,107,306268,0.0-5.0-0.51,5f004f090329ec14b5f49015,5dafea4de40355001651fa2f,5f005dac0658791610d422c3,False,0.43,0.0,414.4099997356534,f,f,test,1.0,,
,p5feedback,108,307997,0.0-5.0-1.51,5f004f090329ec14b5f49015,5dafea4de40355001651fa2f,5f005dac0658791610d422c3,False,0.43,,,,,,,,
,p5card,109,311091,0.0-5.0-0.52,5f004f090329ec14b5f49015,5dafea4de40355001651fa2f,5f005dac0658791610d422c3,False,0.43,0.0,499.79000026360154,f,f,test,1.0,,
,p5feedback,110,312505,0.0-5.0-1.52,5f004f090329ec14b5f49015,5dafea4de40355001651fa2f,5f005dac0658791610d422c3,False,0.43,,,,,,,,
,p5card,111,315431,0.0-5.0-0.53,5f004f090329ec14b5f49015,5dafea4de40355001651fa2f,5f005dac0658791610d422c3,False,0.43,1.0,451.8349999561906,j,j,test,1.0,,
,p5feedback,112,316957,0.0-5.0-1.53,5f004f090329ec14b5f49015,5dafea4de40355001651fa2f,5f005dac0658791610d422c3,False,0.43,,,,,,,,
,p5card,113,319986,0.0-5.0-0.54,5f004f090329ec14b5f49015,5dafea4de40355001651fa2f,5f005dac0658791610d422c3,False,0.43,0.0,469.1650001332164,j,f,test,0.0,,
,p5feedback,114,320664,0.0-5.0-1.54,5f004f090329ec14b5f49015,5dafea4de40355001651fa2f,5f005dac0658791610d422c3,False,0.43,,,,,,,,
,p5card,115,324676,0.0-5.0-0.55,5f004f090329ec14b5f49015,5dafea4de40355001651fa2f,5f005dac0658791610d422c3,False,0.43,1.0,370.18000008538365,j,j,test,1.0,,
,p5feedback,116,326487,0.0-5.0-1.55,5f004f090329ec14b5f49015,5dafea4de40355001651fa2f,5f005dac0658791610d422c3,False,0.43,,,,,,,,
,p5card,117,329618,0.0-5.0-0.56,5f004f090329ec14b5f49015,5dafea4de40355001651fa2f,5f005dac0658791610d422c3,False,0.43,0.0,372.26999970152974,j,f,test,0.0,,
,p5feedback,118,331244,0.0-5.0-1.56,5f004f090329ec14b5f49015,5dafea4de40355001651fa2f,5f005dac0658791610d422c3,False,0.43,,,,,,,,
,p5card,119,334557,0.0-5.0-0.57,5f004f090329ec14b5f49015,5dafea4de40355001651fa2f,5f005dac0658791610d422c3,False,0.43,1.0,632.2750002145767,f,j,test,0.0,,
,p5feedback,120,336041,0.0-5.0-1.57,5f004f090329ec14b5f49015,5dafea4de40355001651fa2f,5f005dac0658791610d422c3,False,0.43,,,,,,,,
,p5card,121,339448,0.0-5.0-0.58,5f004f090329ec14b5f49015,5dafea4de40355001651fa2f,5f005dac0658791610d422c3,False,0.43,1.0,478.60000003129244,j,j,test,1.0,,
,p5feedback,122,342493,0.0-5.0-1.58,5f004f090329ec14b5f49015,5dafea4de40355001651fa2f,5f005dac0658791610d422c3,False,0.43,,,,,,,,
,p5card,123,345355,0.0-5.0-0.59,5f004f090329ec14b5f49015,5dafea4de40355001651fa2f,5f005dac0658791610d422c3,False,0.43,0.0,465.5100000090897,j,f,test,0.0,,
,p5feedback,124,347667,0.0-5.0-1.59,5f004f090329ec14b5f49015,5dafea4de40355001651fa2f,5f005dac0658791610d422c3,False,0.43,,,,,,,,
,p5card,125,350980,0.0-5.0-0.60,5f004f090329ec14b5f49015,5dafea4de40355001651fa2f,5f005dac0658791610d422c3,False,0.43,1.0,705.5199998430908,f,j,test,0.0,,
,p5feedback,126,351874,0.0-5.0-1.60,5f004f090329ec14b5f49015,5dafea4de40355001651fa2f,5f005dac0658791610d422c3,False,0.43,,,,,,,,
,p5card,127,356002,0.0-5.0-0.61,5f004f090329ec14b5f49015,5dafea4de40355001651fa2f,5f005dac0658791610d422c3,False,0.43,0.0,615.1549997739494,j,f,test,0.0,,
,p5feedback,128,356661,0.0-5.0-1.61,5f004f090329ec14b5f49015,5dafea4de40355001651fa2f,5f005dac0658791610d422c3,False,0.43,,,,,,,,
,p5card,129,359575,0.0-5.0-0.62,5f004f090329ec14b5f49015,5dafea4de40355001651fa2f,5f005dac0658791610d422c3,False,0.43,1.0,427.49999975785613,j,j,test,1.0,,
,p5feedback,130,360110,0.0-5.0-1.62,5f004f090329ec14b5f49015,5dafea4de40355001651fa2f,5f005dac0658791610d422c3,False,0.43,,,,,,,,
,p5card,131,363147,0.0-5.0-0.63,5f004f090329ec14b5f49015,5dafea4de40355001651fa2f,5f005dac0658791610d422c3,False,0.43,0.0,655.6650004349649,j,f,test,0.0,,
,p5feedback,132,363721,0.0-5.0-1.63,5f004f090329ec14b5f49015,5dafea4de40355001651fa2f,5f005dac0658791610d422c3,False,0.43,,,,,,,,
,p5card,133,367001,0.0-5.0-0.64,5f004f090329ec14b5f49015,5dafea4de40355001651fa2f,5f005dac0658791610d422c3,False,0.43,1.0,839.3100001849234,j,j,test,1.0,,
,p5feedback,134,368644,0.0-5.0-1.64,5f004f090329ec14b5f49015,5dafea4de40355001651fa2f,5f005dac0658791610d422c3,False,0.43,,,,,,,,
,p5card,135,371758,0.0-5.0-0.65,5f004f090329ec14b5f49015,5dafea4de40355001651fa2f,5f005dac0658791610d422c3,False,0.43,0.0,651.1099999770522,j,f,test,0.0,,
,p5feedback,136,372450,0.0-5.0-1.65,5f004f090329ec14b5f49015,5dafea4de40355001651fa2f,5f005dac0658791610d422c3,False,0.43,,,,,,,,
,p5card,137,375363,0.0-5.0-0.66,5f004f090329ec14b5f49015,5dafea4de40355001651fa2f,5f005dac0658791610d422c3,False,0.43,0.0,491.85500014573336,j,f,test,0.0,,
,p5feedback,138,376022,0.0-5.0-1.66,5f004f090329ec14b5f49015,5dafea4de40355001651fa2f,5f005dac0658791610d422c3,False,0.43,,,,,,,,
,p5card,139,378800,0.0-5.0-0.67,5f004f090329ec14b5f49015,5dafea4de40355001651fa2f,5f005dac0658791610d422c3,False,0.43,1.0,390.5650000087917,j,j,test,1.0,,
,p5feedback,140,380517,0.0-5.0-1.67,5f004f090329ec14b5f49015,5dafea4de40355001651fa2f,5f005dac0658791610d422c3,False,0.43,,,,,,,,
,p5card,141,383441,0.0-5.0-0.68,5f004f090329ec14b5f49015,5dafea4de40355001651fa2f,5f005dac0658791610d422c3,False,0.43,0.0,501.77499977871776,j,f,test,0.0,,
,p5feedback,142,383986,0.0-5.0-1.68,5f004f090329ec14b5f49015,5dafea4de40355001651fa2f,5f005dac0658791610d422c3,False,0.43,,,,,,,,
,p5card,143,387146,0.0-5.0-0.69,5f004f090329ec14b5f49015,5dafea4de40355001651fa2f,5f005dac0658791610d422c3,False,0.43,1.0,371.9799998216331,j,j,test,1.0,,
,p5feedback,144,387811,0.0-5.0-1.69,5f004f090329ec14b5f49015,5dafea4de40355001651fa2f,5f005dac0658791610d422c3,False,0.43,,,,,,,,
,p5card,145,390767,0.0-5.0-0.70,5f004f090329ec14b5f49015,5dafea4de40355001651fa2f,5f005dac0658791610d422c3,False,0.43,0.0,573.9450003020465,f,f,test,1.0,,
,p5feedback,146,391578,0.0-5.0-1.70,5f004f090329ec14b5f49015,5dafea4de40355001651fa2f,5f005dac0658791610d422c3,False,0.43,,,,,,,,
,p5card,147,394623,0.0-5.0-0.71,5f004f090329ec14b5f49015,5dafea4de40355001651fa2f,5f005dac0658791610d422c3,False,0.43,1.0,392.17499969527125,f,j,test,0.0,,
,p5feedback,148,395135,0.0-5.0-1.71,5f004f090329ec14b5f49015,5dafea4de40355001651fa2f,5f005dac0658791610d422c3,False,0.43,,,,,,,,
,p5card,149,398394,0.0-5.0-0.72,5f004f090329ec14b5f49015,5dafea4de40355001651fa2f,5f005dac0658791610d422c3,False,0.43,1.0,359.33500016108155,f,j,test,0.0,,
,p5feedback,150,399680,0.0-5.0-1.72,5f004f090329ec14b5f49015,5dafea4de40355001651fa2f,5f005dac0658791610d422c3,False,0.43,,,,,,,,
,p5card,151,402549,0.0-5.0-0.73,5f004f090329ec14b5f49015,5dafea4de40355001651fa2f,5f005dac0658791610d422c3,False,0.43,0.0,378.4849997609854,f,f,test,1.0,,
,p5feedback,152,404200,0.0-5.0-1.73,5f004f090329ec14b5f49015,5dafea4de40355001651fa2f,5f005dac0658791610d422c3,False,0.43,,,,,,,,
,p5card,153,407407,0.0-5.0-0.74,5f004f090329ec14b5f49015,5dafea4de40355001651fa2f,5f005dac0658791610d422c3,False,0.43,1.0,673.5950000584126,f,j,test,0.0,,
,p5feedback,154,408315,0.0-5.0-1.74,5f004f090329ec14b5f49015,5dafea4de40355001651fa2f,5f005dac0658791610d422c3,False,0.43,,,,,,,,
,p5card,155,411212,0.0-5.0-0.75,5f004f090329ec14b5f49015,5dafea4de40355001651fa2f,5f005dac0658791610d422c3,False,0.43,0.0,442.7299997769296,j,f,test,0.0,,
,p5feedback,156,411755,0.0-5.0-1.75,5f004f090329ec14b5f49015,5dafea4de40355001651fa2f,5f005dac0658791610d422c3,False,0.43,,,,,,,,
,p5card,157,414584,0.0-5.0-0.76,5f004f090329ec14b5f49015,5dafea4de40355001651fa2f,5f005dac0658791610d422c3,False,0.43,1.0,503.5749999806285,j,j,test,1.0,,
,p5feedback,158,415000,0.0-5.0-1.76,5f004f090329ec14b5f49015,5dafea4de40355001651fa2f,5f005dac0658791610d422c3,False,0.43,,,,,,,,
,p5card,159,417954,0.0-5.0-0.77,5f004f090329ec14b5f49015,5dafea4de40355001651fa2f,5f005dac0658791610d422c3,False,0.43,0.0,572.8649999946356,j,f,test,0.0,,
,p5feedback,160,418447,0.0-5.0-1.77,5f004f090329ec14b5f49015,5dafea4de40355001651fa2f,5f005dac0658791610d422c3,False,0.43,,,,,,,,
,p5card,161,421326,0.0-5.0-0.78,5f004f090329ec14b5f49015,5dafea4de40355001651fa2f,5f005dac0658791610d422c3,False,0.43,1.0,489.44499995559454,j,j,test,1.0,,
,p5feedback,162,423045,0.0-5.0-1.78,5f004f090329ec14b5f49015,5dafea4de40355001651fa2f,5f005dac0658791610d422c3,False,0.43,,,,,,,,
,p5card,163,425949,0.0-5.0-0.79,5f004f090329ec14b5f49015,5dafea4de40355001651fa2f,5f005dac0658791610d422c3,False,0.43,0.0,553.9549998939037,j,f,test,0.0,,
,p5feedback,164,426335,0.0-5.0-1.79,5f004f090329ec14b5f49015,5dafea4de40355001651fa2f,5f005dac0658791610d422c3,False,0.43,,,,,,,,
,p5card,165,429253,0.0-5.0-0.80,5f004f090329ec14b5f49015,5dafea4de40355001651fa2f,5f005dac0658791610d422c3,False,0.43,0.0,526.6450000926852,f,f,test,1.0,,
,p5feedback,166,430279,0.0-5.0-1.80,5f004f090329ec14b5f49015,5dafea4de40355001651fa2f,5f005dac0658791610d422c3,False,0.43,,,,,,,,
,p5card,167,433043,0.0-5.0-0.81,5f004f090329ec14b5f49015,5dafea4de40355001651fa2f,5f005dac0658791610d422c3,False,0.43,1.0,440.89500000700355,j,j,test,1.0,,
,p5feedback,168,434352,0.0-5.0-1.81,5f004f090329ec14b5f49015,5dafea4de40355001651fa2f,5f005dac0658791610d422c3,False,0.43,,,,,,,,
,p5card,169,437197,0.0-5.0-0.82,5f004f090329ec14b5f49015,5dafea4de40355001651fa2f,5f005dac0658791610d422c3,False,0.43,0.0,393.4699995443225,j,f,test,0.0,,
,p5feedback,170,438144,0.0-5.0-1.82,5f004f090329ec14b5f49015,5dafea4de40355001651fa2f,5f005dac0658791610d422c3,False,0.43,,,,,,,,
,p5card,171,441103,0.0-5.0-0.83,5f004f090329ec14b5f49015,5dafea4de40355001651fa2f,5f005dac0658791610d422c3,False,0.43,1.0,584.3199999071658,j,j,test,1.0,,
,p5feedback,172,441845,0.0-5.0-1.83,5f004f090329ec14b5f49015,5dafea4de40355001651fa2f,5f005dac0658791610d422c3,False,0.43,,,,,,,,
,p5card,173,444791,0.0-5.0-0.84,5f004f090329ec14b5f49015,5dafea4de40355001651fa2f,5f005dac0658791610d422c3,False,0.43,1.0,381.0299998149276,j,j,test,1.0,,
,p5feedback,174,445268,0.0-5.0-1.84,5f004f090329ec14b5f49015,5dafea4de40355001651fa2f,5f005dac0658791610d422c3,False,0.43,,,,,,,,
,p5card,175,448112,0.0-5.0-0.85,5f004f090329ec14b5f49015,5dafea4de40355001651fa2f,5f005dac0658791610d422c3,False,0.43,0.0,457.1299999952316,f,f,test,1.0,,
,p5feedback,176,454195,0.0-5.0-1.85,5f004f090329ec14b5f49015,5dafea4de40355001651fa2f,5f005dac0658791610d422c3,False,0.43,,,,,,,,
,p5card,177,457292,0.0-5.0-0.86,5f004f090329ec14b5f49015,5dafea4de40355001651fa2f,5f005dac0658791610d422c3,False,0.43,1.0,668.8999999314547,f,j,test,0.0,,
,p5feedback,178,457976,0.0-5.0-1.86,5f004f090329ec14b5f49015,5dafea4de40355001651fa2f,5f005dac0658791610d422c3,False,0.43,,,,,,,,
,p5card,179,460831,0.0-5.0-0.87,5f004f090329ec14b5f49015,5dafea4de40355001651fa2f,5f005dac0658791610d422c3,False,0.43,0.0,444.63999988511205,j,f,test,0.0,,
,p5feedback,180,461326,0.0-5.0-1.87,5f004f090329ec14b5f49015,5dafea4de40355001651fa2f,5f005dac0658791610d422c3,False,0.43,,,,,,,,
,p5card,181,464201,0.0-5.0-0.88,5f004f090329ec14b5f49015,5dafea4de40355001651fa2f,5f005dac0658791610d422c3,False,0.43,1.0,480.08499993011355,j,j,test,1.0,,
,p5feedback,182,464859,0.0-5.0-1.88,5f004f090329ec14b5f49015,5dafea4de40355001651fa2f,5f005dac0658791610d422c3,False,0.43,,,,,,,,
,p5card,183,467823,0.0-5.0-0.89,5f004f090329ec14b5f49015,5dafea4de40355001651fa2f,5f005dac0658791610d422c3,False,0.43,0.0,600.9549996815622,j,f,test,0.0,,
,p5feedback,184,469136,0.0-5.0-1.89,5f004f090329ec14b5f49015,5dafea4de40355001651fa2f,5f005dac0658791610d422c3,False,0.43,,,,,,,,
,survey-text,185,513514,0.0-6.0,5f004f090329ec14b5f49015,5dafea4de40355001651fa2f,5f005dac0658791610d422c3,False,0.43,,,,,,,44192.05000018701,"{""best_guess"":"" te, w których rysunek był na dole""}"
,survey-text,186,520489,0.0-7.0,5f004f090329ec14b5f49015,5dafea4de40355001651fa2f,5f005dac0658791610d422c3,False,0.43,,,,,,,6968.565000221133,"{""worker_comments"":""""}"
,p5Text,187,524296,0.0-8.0,5f004f090329ec14b5f49015,5dafea4de40355001651fa2f,5f005dac0658791610d422c3,False,0.43,,,,,,,,
1.0,fullscreen,0,2511,0.0-0.0,5f004f090329ec14b5f49015,5cb861ee40e6bf001517b0f5,5f005cc5304f7316c39b7e77,False,0.61,,,,,,,,
,p5Text,1,2818,0.0-1.0,5f004f090329ec14b5f49015,5cb861ee40e6bf001517b0f5,5f005cc5304f7316c39b7e77,False,0.61,,,,,,,,
,p5Text,2,12140,0.0-2.0,5f004f090329ec14b5f49015,5cb861ee40e6bf001517b0f5,5f005cc5304f7316c39b7e77,False,0.61,,,,,,,,
,p5Text,3,27288,0.0-3.0,5f004f090329ec14b5f49015,5cb861ee40e6bf001517b0f5,5f005cc5304f7316c39b7e77,False,0.61,,,,,,,,
,p5Text,4,29641,0.0-4.0,5f004f090329ec14b5f49015,5cb861ee40e6bf001517b0f5,5f005cc5304f7316c39b7e77,False,0.61,,,,,,,,
,p5card,5,34724,0.0-5.0-0.0,5f004f090329ec14b5f49015,5cb861ee40e6bf001517b0f5,5f005cc5304f7316c39b7e77,False,0.61,0.0,,,f,test,,,
,p5feedback,6,43570,0.0-5.0-1.0,5f004f090329ec14b5f49015,5cb861ee40e6bf001517b0f5,5f005cc5304f7316c39b7e77,False,0.61,,,,,,,,
,p5card,7,46057,0.0-5.0-0.1,5f004f090329ec14b5f49015,5cb861ee40e6bf001517b0f5,5f005cc5304f7316c39b7e77,False,0.61,1.0,386.9849999900907,j,j,test,1.0,,
,p5feedback,8,47421,0.0-5.0-1.1,5f004f090329ec14b5f49015,5cb861ee40e6bf001517b0f5,5f005cc5304f7316c39b7e77,False,0.61,,,,,,,,
,p5card,9,49906,0.0-5.0-0.2,5f004f090329ec14b5f49015,5cb861ee40e6bf001517b0f5,5f005cc5304f7316c39b7e77,False,0.61,0.0,398.7499999348074,f,f,test,1.0,,
,p5feedback,10,52355,0.0-5.0-1.2,5f004f090329ec14b5f49015,5cb861ee40e6bf001517b0f5,5f005cc5304f7316c39b7e77,False,0.61,,,,,,,,
,p5card,11,54756,0.0-5.0-0.3,5f004f090329ec14b5f49015,5cb861ee40e6bf001517b0f5,5f005cc5304f7316c39b7e77,False,0.61,1.0,304.4799999333918,f,j,test,0.0,,
,p5feedback,12,55233,0.0-5.0-1.3,5f004f090329ec14b5f49015,5cb861ee40e6bf001517b0f5,5f005cc5304f7316c39b7e77,False,0.61,,,,,,,,
,p5card,13,57591,0.0-5.0-0.4,5f004f090329ec14b5f49015,5cb861ee40e6bf001517b0f5,5f005cc5304f7316c39b7e77,False,0.61,0.0,262.5949999783188,j,f,test,0.0,,
,p5feedback,14,58700,0.0-5.0-1.4,5f004f090329ec14b5f49015,5cb861ee40e6bf001517b0f5,5f005cc5304f7316c39b7e77,False,0.61,,,,,,,,
,p5card,15,61372,0.0-5.0-0.5,5f004f090329ec14b5f49015,5cb861ee40e6bf001517b0f5,5f005cc5304f7316c39b7e77,False,0.61,1.0,564.3299999646842,j,j,test,1.0,,
,p5feedback,16,61861,0.0-5.0-1.5,5f004f090329ec14b5f49015,5cb861ee40e6bf001517b0f5,5f005cc5304f7316c39b7e77,False,0.61,,,,,,,,
,p5card,17,64405,0.0-5.0-0.6,5f004f090329ec14b5f49015,5cb861ee40e6bf001517b0f5,5f005cc5304f7316c39b7e77,False,0.61,1.0,427.2849999833852,j,j,test,1.0,,
,p5feedback,18,64497,0.0-5.0-1.6,5f004f090329ec14b5f49015,5cb861ee40e6bf001517b0f5,5f005cc5304f7316c39b7e77,False,0.61,,,,,,,,
,p5card,19,67622,0.0-5.0-0.7,5f004f090329ec14b5f49015,5cb861ee40e6bf001517b0f5,5f005cc5304f7316c39b7e77,False,0.61,0.0,1004.3299999088049,f,f,test,1.0,,
,p5feedback,20,68100,0.0-5.0-1.7,5f004f090329ec14b5f49015,5cb861ee40e6bf001517b0f5,5f005cc5304f7316c39b7e77,False,0.61,,,,,,,,
,p5card,21,71055,0.0-5.0-0.8,5f004f090329ec14b5f49015,5cb861ee40e6bf001517b0f5,5f005cc5304f7316c39b7e77,False,0.61,0.0,860.9100000467151,f,f,test,1.0,,
,p5feedback,22,71519,0.0-5.0-1.8,5f004f090329ec14b5f49015,5cb861ee40e6bf001517b0f5,5f005cc5304f7316c39b7e77,False,0.61,,,,,,,,
,p5card,23,74220,0.0-5.0-0.9,5f004f090329ec14b5f49015,5cb861ee40e6bf001517b0f5,5f005cc5304f7316c39b7e77,False,0.61,1.0,580.4149999748915,j,j,test,1.0,,
,p5feedback,24,74633,0.0-5.0-1.9,5f004f090329ec14b5f49015,5cb861ee40e6bf001517b0f5,5f005cc5304f7316c39b7e77,False,0.61,,,,,,,,
,p5card,25,79734,0.0-5.0-0.10,5f004f090329ec14b5f49015,5cb861ee40e6bf001517b0f5,5f005cc5304f7316c39b7e77,False,0.61,1.0,904.1199998464435,j,j,test,1.0,,
,p5feedback,26,80228,0.0-5.0-1.10,5f004f090329ec14b5f49015,5cb861ee40e6bf001517b0f5,5f005cc5304f7316c39b7e77,False,0.61,,,,,,,,
,p5card,27,82950,0.0-5.0-0.11,5f004f090329ec14b5f49015,5cb861ee40e6bf001517b0f5,5f005cc5304f7316c39b7e77,False,0.61,0.0,604.3499999213964,f,f,test,1.0,,
,p5feedback,28,85959,0.0-5.0-1.11,5f004f090329ec14b5f49015,5cb861ee40e6bf001517b0f5,5f005cc5304f7316c39b7e77,False,0.61,,,,,,,,
,p5card,29,88649,0.0-5.0-0.12,5f004f090329ec14b5f49015,5cb861ee40e6bf001517b0f5,5f005cc5304f7316c39b7e77,False,0.61,1.0,577.4550000205636,f,j,test,0.0,,
,p5feedback,30,89520,0.0-5.0-1.12,5f004f090329ec14b5f49015,5cb861ee40e6bf001517b0f5,5f005cc5304f7316c39b7e77,False,0.61,,,,,,,,
,p5card,31,92183,0.0-5.0-0.13,5f004f090329ec14b5f49015,5cb861ee40e6bf001517b0f5,5f005cc5304f7316c39b7e77,False,0.61,0.0,546.875,f,f,test,1.0,,
,p5feedback,32,92872,0.0-5.0-1.13,5f004f090329ec14b5f49015,5cb861ee40e6bf001517b0f5,5f005cc5304f7316c39b7e77,False,0.61,,,,,,,,
,p5card,33,95781,0.0-5.0-0.14,5f004f090329ec14b5f49015,5cb861ee40e6bf001517b0f5,5f005cc5304f7316c39b7e77,False,0.61,1.0,803.3749999012798,j,j,test,1.0,,
,p5feedback,34,96401,0.0-5.0-1.14,5f004f090329ec14b5f49015,5cb861ee40e6bf001517b0f5,5f005cc5304f7316c39b7e77,False,0.61,,,,,,,,
,p5card,35,99081,0.0-5.0-0.15,5f004f090329ec14b5f49015,5cb861ee40e6bf001517b0f5,5f005cc5304f7316c39b7e77,False,0.61,0.0,580.6750000920147,f,f,test,1.0,,
,p5feedback,36,99457,0.0-5.0-1.15,5f004f090329ec14b5f49015,5cb861ee40e6bf001517b0f5,5f005cc5304f7316c39b7e77,False,0.61,,,,,,,,
,p5card,37,102132,0.0-5.0-0.16,5f004f090329ec14b5f49015,5cb861ee40e6bf001517b0f5,5f005cc5304f7316c39b7e77,False,0.61,1.0,572.1150001045316,f,j,test,0.0,,
,p5feedback,38,102729,0.0-5.0-1.16,5f004f090329ec14b5f49015,5cb861ee40e6bf001517b0f5,5f005cc5304f7316c39b7e77,False,0.61,,,,,,,,
,p5card,39,105531,0.0-5.0-0.17,5f004f090329ec14b5f49015,5cb861ee40e6bf001517b0f5,5f005cc5304f7316c39b7e77,False,0.61,0.0,693.2250000536442,j,f,test,0.0,,
,p5feedback,40,106036,0.0-5.0-1.17,5f004f090329ec14b5f49015,5cb861ee40e6bf001517b0f5,5f005cc5304f7316c39b7e77,False,0.61,,,,,,,,
,p5card,41,108782,0.0-5.0-0.18,5f004f090329ec14b5f49015,5cb861ee40e6bf001517b0f5,5f005cc5304f7316c39b7e77,False,0.61,1.0,632.0949997752905,f,j,test,0.0,,
,p5feedback,42,109275,0.0-5.0-1.18,5f004f090329ec14b5f49015,5cb861ee40e6bf001517b0f5,5f005cc5304f7316c39b7e77,False,0.61,,,,,,,,
,p5card,43,112098,0.0-5.0-0.19,5f004f090329ec14b5f49015,5cb861ee40e6bf001517b0f5,5f005cc5304f7316c39b7e77,False,0.61,0.0,706.2049999367446,j,f,test,0.0,,
,p5feedback,44,112920,0.0-5.0-1.19,5f004f090329ec14b5f49015,5cb861ee40e6bf001517b0f5,5f005cc5304f7316c39b7e77,False,0.61,,,,,,,,
,p5card,45,115698,0.0-5.0-0.20,5f004f090329ec14b5f49015,5cb861ee40e6bf001517b0f5,5f005cc5304f7316c39b7e77,False,0.61,1.0,658.1050001550466,j,j,test,1.0,,
,p5feedback,46,117162,0.0-5.0-1.20,5f004f090329ec14b5f49015,5cb861ee40e6bf001517b0f5,5f005cc5304f7316c39b7e77,False,0.61,,,,,,,,
,p5card,47,120013,0.0-5.0-0.21,5f004f090329ec14b5f49015,5cb861ee40e6bf001517b0f5,5f005cc5304f7316c39b7e77,False,0.61,0.0,733.6450000293553,f,f,test,1.0,,
,p5feedback,48,121651,0.0-5.0-1.21,5f004f090329ec14b5f49015,5cb861ee40e6bf001517b0f5,5f005cc5304f7316c39b7e77,False,0.61,,,,,,,,
,p5card,49,124381,0.0-5.0-0.22,5f004f090329ec14b5f49015,5cb861ee40e6bf001517b0f5,5f005cc5304f7316c39b7e77,False,0.61,1.0,635.3549999184906,f,j,test,0.0,,
,p5feedback,50,124857,0.0-5.0-1.22,5f004f090329ec14b5f49015,5cb861ee40e6bf001517b0f5,5f005cc5304f7316c39b7e77,False,0.61,,,,,,,,
,p5card,51,127630,0.0-5.0-0.23,5f004f090329ec14b5f49015,5cb861ee40e6bf001517b0f5,5f005cc5304f7316c39b7e77,False,0.61,0.0,608.5950001142919,f,f,test,1.0,,
,p5feedback,52,127768,0.0-5.0-1.23,5f004f090329ec14b5f49015,5cb861ee40e6bf001517b0f5,5f005cc5304f7316c39b7e77,False,0.61,,,,,,,,
,p5card,53,130446,0.0-5.0-0.24,5f004f090329ec14b5f49015,5cb861ee40e6bf001517b0f5,5f005cc5304f7316c39b7e77,False,0.61,1.0,583.6449998896569,j,j,test,1.0,,
,p5feedback,54,130857,0.0-5.0-1.24,5f004f090329ec14b5f49015,5cb861ee40e6bf001517b0f5,5f005cc5304f7316c39b7e77,False,0.61,,,,,,,,
,p5card,55,133512,0.0-5.0-0.25,5f004f090329ec14b5f49015,5cb861ee40e6bf001517b0f5,5f005cc5304f7316c39b7e77,False,0.61,0.0,544.7700000368059,f,f,test,1.0,,
,p5feedback,56,134116,0.0-5.0-1.25,5f004f090329ec14b5f49015,5cb861ee40e6bf001517b0f5,5f005cc5304f7316c39b7e77,False,0.61,,,,,,,,
,p5card,57,136712,0.0-5.0-0.26,5f004f090329ec14b5f49015,5cb861ee40e6bf001517b0f5,5f005cc5304f7316c39b7e77,False,0.61,0.0,501.82999996468425,f,f,test,1.0,,
,p5feedback,58,137108,0.0-5.0-1.26,5f004f090329ec14b5f49015,5cb861ee40e6bf001517b0f5,5f005cc5304f7316c39b7e77,False,0.61,,,,,,,,
,p5card,59,139678,0.0-5.0-0.27,5f004f090329ec14b5f49015,5cb861ee40e6bf001517b0f5,5f005cc5304f7316c39b7e77,False,0.61,1.0,469.1200000233948,f,j,test,0.0,,
,p5feedback,60,140258,0.0-5.0-1.27,5f004f090329ec14b5f49015,5cb861ee40e6bf001517b0f5,5f005cc5304f7316c39b7e77,False,0.61,,,,,,,,
,p5card,61,142961,0.0-5.0-0.28,5f004f090329ec14b5f49015,5cb861ee40e6bf001517b0f5,5f005cc5304f7316c39b7e77,False,0.61,0.0,582.7200000640005,j,f,test,0.0,,
,p5feedback,62,143482,0.0-5.0-1.28,5f004f090329ec14b5f49015,5cb861ee40e6bf001517b0f5,5f005cc5304f7316c39b7e77,False,0.61,,,,,,,,
,p5card,63,146127,0.0-5.0-0.29,5f004f090329ec14b5f49015,5cb861ee40e6bf001517b0f5,5f005cc5304f7316c39b7e77,False,0.61,1.0,550.6049999967217,j,j,test,1.0,,
,p5feedback,64,146148,0.0-5.0-1.29,5f004f090329ec14b5f49015,5cb861ee40e6bf001517b0f5,5f005cc5304f7316c39b7e77,False,0.61,,,,,,,,
,p5card,65,149027,0.0-5.0-0.30,5f004f090329ec14b5f49015,5cb861ee40e6bf001517b0f5,5f005cc5304f7316c39b7e77,False,0.61,0.0,671.9649999868125,j,f,test,0.0,,
,p5feedback,66,149271,0.0-5.0-1.30,5f004f090329ec14b5f49015,5cb861ee40e6bf001517b0f5,5f005cc5304f7316c39b7e77,False,0.61,,,,,,,,
,p5card,67,152127,0.0-5.0-0.31,5f004f090329ec14b5f49015,5cb861ee40e6bf001517b0f5,5f005cc5304f7316c39b7e77,False,0.61,1.0,665.2049999684095,f,j,test,0.0,,
,p5feedback,68,152554,0.0-5.0-1.31,5f004f090329ec14b5f49015,5cb861ee40e6bf001517b0f5,5f005cc5304f7316c39b7e77,False,0.61,,,,,,,,
,p5card,69,155293,0.0-5.0-0.32,5f004f090329ec14b5f49015,5cb861ee40e6bf001517b0f5,5f005cc5304f7316c39b7e77,False,0.61,0.0,629.3349999468774,j,f,test,0.0,,
,p5feedback,70,155365,0.0-5.0-1.32,5f004f090329ec14b5f49015,5cb861ee40e6bf001517b0f5,5f005cc5304f7316c39b7e77,False,0.61,,,,,,,,
,p5card,71,158126,0.0-5.0-0.33,5f004f090329ec14b5f49015,5cb861ee40e6bf001517b0f5,5f005cc5304f7316c39b7e77,False,0.61,1.0,662.1000000741333,j,j,test,1.0,,
,p5feedback,72,158557,0.0-5.0-1.33,5f004f090329ec14b5f49015,5cb861ee40e6bf001517b0f5,5f005cc5304f7316c39b7e77,False,0.61,,,,,,,,
,p5card,73,161110,0.0-5.0-0.34,5f004f090329ec14b5f49015,5cb861ee40e6bf001517b0f5,5f005cc5304f7316c39b7e77,False,0.61,0.0,441.60000002011657,j,f,test,0.0,,
,p5feedback,74,161452,0.0-5.0-1.34,5f004f090329ec14b5f49015,5cb861ee40e6bf001517b0f5,5f005cc5304f7316c39b7e77,False,0.61,,,,,,,,
,p5card,75,164059,0.0-5.0-0.35,5f004f090329ec14b5f49015,5cb861ee40e6bf001517b0f5,5f005cc5304f7316c39b7e77,False,0.61,1.0,493.95000003278255,j,j,test,1.0,,
,p5feedback,76,164108,0.0-5.0-1.35,5f004f090329ec14b5f49015,5cb861ee40e6bf001517b0f5,5f005cc5304f7316c39b7e77,False,0.61,,,,,,,,
,p5card,77,166976,0.0-5.0-0.36,5f004f090329ec14b5f49015,5cb861ee40e6bf001517b0f5,5f005cc5304f7316c39b7e77,False,0.61,0.0,747.8450001217425,f,f,test,1.0,,
,p5feedback,78,167457,0.0-5.0-1.36,5f004f090329ec14b5f49015,5cb861ee40e6bf001517b0f5,5f005cc5304f7316c39b7e77,False,0.61,,,,,,,,
,p5card,79,170109,0.0-5.0-0.37,5f004f090329ec14b5f49015,5cb861ee40e6bf001517b0f5,5f005cc5304f7316c39b7e77,False,0.61,1.0,555.9350000694394,j,j,test,1.0,,
,p5feedback,80,170513,0.0-5.0-1.37,5f004f090329ec14b5f49015,5cb861ee40e6bf001517b0f5,5f005cc5304f7316c39b7e77,False,0.61,,,,,,,,
,p5card,81,173175,0.0-5.0-0.38,5f004f090329ec14b5f49015,5cb861ee40e6bf001517b0f5,5f005cc5304f7316c39b7e77,False,0.61,1.0,540.0700001046062,j,j,test,1.0,,
,p5feedback,82,173732,0.0-5.0-1.38,5f004f090329ec14b5f49015,5cb861ee40e6bf001517b0f5,5f005cc5304f7316c39b7e77,False,0.61,,,,,,,,
,p5card,83,176358,0.0-5.0-0.39,5f004f090329ec14b5f49015,5cb861ee40e6bf001517b0f5,5f005cc5304f7316c39b7e77,False,0.61,0.0,508.90500005334616,f,f,test,1.0,,
,p5feedback,84,176714,0.0-5.0-1.39,5f004f090329ec14b5f49015,5cb861ee40e6bf001517b0f5,5f005cc5304f7316c39b7e77,False,0.61,,,,,,,,
,p5card,85,179508,0.0-5.0-0.40,5f004f090329ec14b5f49015,5cb861ee40e6bf001517b0f5,5f005cc5304f7316c39b7e77,False,0.61,1.0,692.5899998750538,j,j,test,1.0,,
,p5feedback,86,179555,0.0-5.0-1.40,5f004f090329ec14b5f49015,5cb861ee40e6bf001517b0f5,5f005cc5304f7316c39b7e77,False,0.61,,,,,,,,
,p5card,87,182324,0.0-5.0-0.41,5f004f090329ec14b5f49015,5cb861ee40e6bf001517b0f5,5f005cc5304f7316c39b7e77,False,0.61,0.0,667.4250001087785,f,f,test,1.0,,
,p5feedback,88,182711,0.0-5.0-1.41,5f004f090329ec14b5f49015,5cb861ee40e6bf001517b0f5,5f005cc5304f7316c39b7e77,False,0.61,,,,,,,,
,p5card,89,185507,0.0-5.0-0.42,5f004f090329ec14b5f49015,5cb861ee40e6bf001517b0f5,5f005cc5304f7316c39b7e77,False,0.61,1.0,708.0900000873953,j,j,test,1.0,,
,p5feedback,90,185682,0.0-5.0-1.42,5f004f090329ec14b5f49015,5cb861ee40e6bf001517b0f5,5f005cc5304f7316c39b7e77,False,0.61,,,,,,,,
,p5card,91,188407,0.0-5.0-0.43,5f004f090329ec14b5f49015,5cb861ee40e6bf001517b0f5,5f005cc5304f7316c39b7e77,False,0.61,0.0,614.2249999102205,f,f,test,1.0,,
,p5feedback,92,188810,0.0-5.0-1.43,5f004f090329ec14b5f49015,5cb861ee40e6bf001517b0f5,5f005cc5304f7316c39b7e77,False,0.61,,,,,,,,
,p5card,93,191473,0.0-5.0-0.44,5f004f090329ec14b5f49015,5cb861ee40e6bf001517b0f5,5f005cc5304f7316c39b7e77,False,0.61,0.0,547.1099999267608,f,f,test,1.0,,
,p5feedback,94,192000,0.0-5.0-1.44,5f004f090329ec14b5f49015,5cb861ee40e6bf001517b0f5,5f005cc5304f7316c39b7e77,False,0.61,,,,,,,,
,p5card,95,195073,0.0-5.0-0.45,5f004f090329ec14b5f49015,5cb861ee40e6bf001517b0f5,5f005cc5304f7316c39b7e77,False,0.61,1.0,977.7249998878688,j,j,test,1.0,,
,p5feedback,96,195564,0.0-5.0-1.45,5f004f090329ec14b5f49015,5cb861ee40e6bf001517b0f5,5f005cc5304f7316c39b7e77,False,0.61,,,,,,,,
,p5card,97,198589,0.0-5.0-0.46,5f004f090329ec14b5f49015,5cb861ee40e6bf001517b0f5,5f005cc5304f7316c39b7e77,False,0.61,1.0,932.7050000429153,j,j,test,1.0,,
,p5feedback,98,198893,0.0-5.0-1.46,5f004f090329ec14b5f49015,5cb861ee40e6bf001517b0f5,5f005cc5304f7316c39b7e77,False,0.61,,,,,,,,
,p5card,99,201722,0.0-5.0-0.47,5f004f090329ec14b5f49015,5cb861ee40e6bf001517b0f5,5f005cc5304f7316c39b7e77,False,0.61,0.0,738.9199999161065,f,f,test,1.0,,
,p5feedback,100,203566,0.0-5.0-1.47,5f004f090329ec14b5f49015,5cb861ee40e6bf001517b0f5,5f005cc5304f7316c39b7e77,False,0.61,,,,,,,,
,p5card,101,206671,0.0-5.0-0.48,5f004f090329ec14b5f49015,5cb861ee40e6bf001517b0f5,5f005cc5304f7316c39b7e77,False,0.61,0.0,972.8300001006573,f,f,test,1.0,,
,p5feedback,102,207377,0.0-5.0-1.48,5f004f090329ec14b5f49015,5cb861ee40e6bf001517b0f5,5f005cc5304f7316c39b7e77,False,0.61,,,,,,,,
,p5card,103,210139,0.0-5.0-0.49,5f004f090329ec14b5f49015,5cb861ee40e6bf001517b0f5,5f005cc5304f7316c39b7e77,False,0.61,1.0,653.6250000353903,j,j,test,1.0,,
,p5feedback,104,211214,0.0-5.0-1.49,5f004f090329ec14b5f49015,5cb861ee40e6bf001517b0f5,5f005cc5304f7316c39b7e77,False,0.61,,,,,,,,
,p5card,105,214088,0.0-5.0-0.50,5f004f090329ec14b5f49015,5cb861ee40e6bf001517b0f5,5f005cc5304f7316c39b7e77,False,0.61,0.0,762.6000000163913,j,f,test,0.0,,
,p5feedback,106,214547,0.0-5.0-1.50,5f004f090329ec14b5f49015,5cb861ee40e6bf001517b0f5,5f005cc5304f7316c39b7e77,False,0.61,,,,,,,,
,p5card,107,217338,0.0-5.0-0.51,5f004f090329ec14b5f49015,5cb861ee40e6bf001517b0f5,5f005cc5304f7316c39b7e77,False,0.61,1.0,684.9549999460578,j,j,test,1.0,,
,p5feedback,108,217509,0.0-5.0-1.51,5f004f090329ec14b5f49015,5cb861ee40e6bf001517b0f5,5f005cc5304f7316c39b7e77,False,0.61,,,,,,,,
,p5card,109,220454,0.0-5.0-0.52,5f004f090329ec14b5f49015,5cb861ee40e6bf001517b0f5,5f005cc5304f7316c39b7e77,False,0.61,1.0,845.5850000027567,f,j,test,0.0,,
,p5feedback,110,220559,0.0-5.0-1.52,5f004f090329ec14b5f49015,5cb861ee40e6bf001517b0f5,5f005cc5304f7316c39b7e77,False,0.61,,,,,,,,
,p5card,111,223270,0.0-5.0-0.53,5f004f090329ec14b5f49015,5cb861ee40e6bf001517b0f5,5f005cc5304f7316c39b7e77,False,0.61,0.0,586.4500000607222,j,f,test,0.0,,
,p5feedback,112,223628,0.0-5.0-1.53,5f004f090329ec14b5f49015,5cb861ee40e6bf001517b0f5,5f005cc5304f7316c39b7e77,False,0.61,,,,,,,,
,p5card,113,226387,0.0-5.0-0.54,5f004f090329ec14b5f49015,5cb861ee40e6bf001517b0f5,5f005cc5304f7316c39b7e77,False,0.61,1.0,655.8199999853969,j,j,test,1.0,,
,p5feedback,114,226748,0.0-5.0-1.54,5f004f090329ec14b5f49015,5cb861ee40e6bf001517b0f5,5f005cc5304f7316c39b7e77,False,0.61,,,,,,,,
,p5card,115,229902,0.0-5.0-0.55,5f004f090329ec14b5f49015,5cb861ee40e6bf001517b0f5,5f005cc5304f7316c39b7e77,False,0.61,0.0,1023.2199998572469,f,f,test,1.0,,
,p5feedback,116,230263,0.0-5.0-1.55,5f004f090329ec14b5f49015,5cb861ee40e6bf001517b0f5,5f005cc5304f7316c39b7e77,False,0.61,,,,,,,,
,p5card,117,232969,0.0-5.0-0.56,5f004f090329ec14b5f49015,5cb861ee40e6bf001517b0f5,5f005cc5304f7316c39b7e77,False,0.61,1.0,598.0050000362098,f,j,test,0.0,,
,p5feedback,118,233374,0.0-5.0-1.56,5f004f090329ec14b5f49015,5cb861ee40e6bf001517b0f5,5f005cc5304f7316c39b7e77,False,0.61,,,,,,,,
,p5card,119,236218,0.0-5.0-0.57,5f004f090329ec14b5f49015,5cb861ee40e6bf001517b0f5,5f005cc5304f7316c39b7e77,False,0.61,0.0,719.4250000175089,j,f,test,0.0,,
,p5feedback,120,236522,0.0-5.0-1.57,5f004f090329ec14b5f49015,5cb861ee40e6bf001517b0f5,5f005cc5304f7316c39b7e77,False,0.61,,,,,,,,
,p5card,121,239101,0.0-5.0-0.58,5f004f090329ec14b5f49015,5cb861ee40e6bf001517b0f5,5f005cc5304f7316c39b7e77,False,0.61,0.0,485.9599999617785,j,f,test,0.0,,
,p5feedback,122,239626,0.0-5.0-1.58,5f004f090329ec14b5f49015,5cb861ee40e6bf001517b0f5,5f005cc5304f7316c39b7e77,False,0.61,,,,,,,,
,p5card,123,242285,0.0-5.0-0.59,5f004f090329ec14b5f49015,5cb861ee40e6bf001517b0f5,5f005cc5304f7316c39b7e77,False,0.61,1.0,549.2100000847131,j,j,test,1.0,,
,p5feedback,124,243507,0.0-5.0-1.59,5f004f090329ec14b5f49015,5cb861ee40e6bf001517b0f5,5f005cc5304f7316c39b7e77,False,0.61,,,,,,,,
,p5card,125,246234,0.0-5.0-0.60,5f004f090329ec14b5f49015,5cb861ee40e6bf001517b0f5,5f005cc5304f7316c39b7e77,False,0.61,1.0,588.7750000692904,j,j,test,1.0,,
,p5feedback,126,246457,0.0-5.0-1.60,5f004f090329ec14b5f49015,5cb861ee40e6bf001517b0f5,5f005cc5304f7316c39b7e77,False,0.61,,,,,,,,
,p5card,127,249001,0.0-5.0-0.61,5f004f090329ec14b5f49015,5cb861ee40e6bf001517b0f5,5f005cc5304f7316c39b7e77,False,0.61,0.0,431.4249998424202,f,f,test,1.0,,
,p5feedback,128,249350,0.0-5.0-1.61,5f004f090329ec14b5f49015,5cb861ee40e6bf001517b0f5,5f005cc5304f7316c39b7e77,False,0.61,,,,,,,,
,p5card,129,251984,0.0-5.0-0.62,5f004f090329ec14b5f49015,5cb861ee40e6bf001517b0f5,5f005cc5304f7316c39b7e77,False,0.61,0.0,518.4700000099838,f,f,test,1.0,,
,p5feedback,130,252337,0.0-5.0-1.62,5f004f090329ec14b5f49015,5cb861ee40e6bf001517b0f5,5f005cc5304f7316c39b7e77,False,0.61,,,,,,,,
,p5card,131,254984,0.0-5.0-0.63,5f004f090329ec14b5f49015,5cb861ee40e6bf001517b0f5,5f005cc5304f7316c39b7e77,False,0.61,1.0,550.5500000435859,j,j,test,1.0,,
,p5feedback,132,255827,0.0-5.0-1.63,5f004f090329ec14b5f49015,5cb861ee40e6bf001517b0f5,5f005cc5304f7316c39b7e77,False,0.61,,,,,,,,
,p5card,133,258766,0.0-5.0-0.64,5f004f090329ec14b5f49015,5cb861ee40e6bf001517b0f5,5f005cc5304f7316c39b7e77,False,0.61,0.0,829.4150000438094,f,f,test,1.0,,
,p5feedback,134,259098,0.0-5.0-1.64,5f004f090329ec14b5f49015,5cb861ee40e6bf001517b0f5,5f005cc5304f7316c39b7e77,False,0.61,,,,,,,,
,p5card,135,261750,0.0-5.0-0.65,5f004f090329ec14b5f49015,5cb861ee40e6bf001517b0f5,5f005cc5304f7316c39b7e77,False,0.61,1.0,560.4550000280142,j,j,test,1.0,,
,p5feedback,136,262092,0.0-5.0-1.65,5f004f090329ec14b5f49015,5cb861ee40e6bf001517b0f5,5f005cc5304f7316c39b7e77,False,0.61,,,,,,,,
,p5card,137,264816,0.0-5.0-0.66,5f004f090329ec14b5f49015,5cb861ee40e6bf001517b0f5,5f005cc5304f7316c39b7e77,False,0.61,1.0,620.7850000355393,j,j,test,1.0,,
,p5feedback,138,265305,0.0-5.0-1.66,5f004f090329ec14b5f49015,5cb861ee40e6bf001517b0f5,5f005cc5304f7316c39b7e77,False,0.61,,,,,,,,
,p5card,139,267832,0.0-5.0-0.67,5f004f090329ec14b5f49015,5cb861ee40e6bf001517b0f5,5f005cc5304f7316c39b7e77,False,0.61,0.0,415.53000011481345,f,f,test,1.0,,
,p5feedback,140,268244,0.0-5.0-1.67,5f004f090329ec14b5f49015,5cb861ee40e6bf001517b0f5,5f005cc5304f7316c39b7e77,False,0.61,,,,,,,,
,p5card,141,270832,0.0-5.0-0.68,5f004f090329ec14b5f49015,5cb861ee40e6bf001517b0f5,5f005cc5304f7316c39b7e77,False,0.61,0.0,477.72999992594123,f,f,test,1.0,,
,p5feedback,142,271244,0.0-5.0-1.68,5f004f090329ec14b5f49015,5cb861ee40e6bf001517b0f5,5f005cc5304f7316c39b7e77,False,0.61,,,,,,,,
,p5card,143,273898,0.0-5.0-0.69,5f004f090329ec14b5f49015,5cb861ee40e6bf001517b0f5,5f005cc5304f7316c39b7e77,False,0.61,1.0,564.4149999134243,j,j,test,1.0,,
,p5feedback,144,274328,0.0-5.0-1.69,5f004f090329ec14b5f49015,5cb861ee40e6bf001517b0f5,5f005cc5304f7316c39b7e77,False,0.61,,,,,,,,
,p5card,145,277064,0.0-5.0-0.70,5f004f090329ec14b5f49015,5cb861ee40e6bf001517b0f5,5f005cc5304f7316c39b7e77,False,0.61,0.0,588.3900001645088,j,f,test,0.0,,
,p5feedback,146,277625,0.0-5.0-1.70,5f004f090329ec14b5f49015,5cb861ee40e6bf001517b0f5,5f005cc5304f7316c39b7e77,False,0.61,,,,,,,,
,p5card,147,280247,0.0-5.0-0.71,5f004f090329ec14b5f49015,5cb861ee40e6bf001517b0f5,5f005cc5304f7316c39b7e77,False,0.61,1.0,520.5950001254678,j,j,test,1.0,,
,p5feedback,148,281056,0.0-5.0-1.71,5f004f090329ec14b5f49015,5cb861ee40e6bf001517b0f5,5f005cc5304f7316c39b7e77,False,0.61,,,,,,,,
,p5card,149,283781,0.0-5.0-0.72,5f004f090329ec14b5f49015,5cb861ee40e6bf001517b0f5,5f005cc5304f7316c39b7e77,False,0.61,0.0,615.724999923259,f,f,test,1.0,,
,p5feedback,150,284474,0.0-5.0-1.72,5f004f090329ec14b5f49015,5cb861ee40e6bf001517b0f5,5f005cc5304f7316c39b7e77,False,0.61,,,,,,,,
,p5card,151,287231,0.0-5.0-0.73,5f004f090329ec14b5f49015,5cb861ee40e6bf001517b0f5,5f005cc5304f7316c39b7e77,False,0.61,1.0,643.7699999660254,f,j,test,0.0,,
,p5feedback,152,287353,0.0-5.0-1.73,5f004f090329ec14b5f49015,5cb861ee40e6bf001517b0f5,5f005cc5304f7316c39b7e77,False,0.61,,,,,,,,
,p5card,153,290063,0.0-5.0-0.74,5f004f090329ec14b5f49015,5cb861ee40e6bf001517b0f5,5f005cc5304f7316c39b7e77,False,0.61,1.0,596.190000185743,f,j,test,0.0,,
,p5feedback,154,290171,0.0-5.0-1.74,5f004f090329ec14b5f49015,5cb861ee40e6bf001517b0f5,5f005cc5304f7316c39b7e77,False,0.61,,,,,,,,
,p5card,155,292796,0.0-5.0-0.75,5f004f090329ec14b5f49015,5cb861ee40e6bf001517b0f5,5f005cc5304f7316c39b7e77,False,0.61,0.0,511.76000013947487,f,f,test,1.0,,
,p5feedback,156,293199,0.0-5.0-1.75,5f004f090329ec14b5f49015,5cb861ee40e6bf001517b0f5,5f005cc5304f7316c39b7e77,False,0.61,,,,,,,,
,p5card,157,296029,0.0-5.0-0.76,5f004f090329ec14b5f49015,5cb861ee40e6bf001517b0f5,5f005cc5304f7316c39b7e77,False,0.61,0.0,729.0600000414997,j,f,test,0.0,,
,p5feedback,158,296286,0.0-5.0-1.76,5f004f090329ec14b5f49015,5cb861ee40e6bf001517b0f5,5f005cc5304f7316c39b7e77,False,0.61,,,,,,,,
,p5card,159,298812,0.0-5.0-0.77,5f004f090329ec14b5f49015,5cb861ee40e6bf001517b0f5,5f005cc5304f7316c39b7e77,False,0.61,1.0,414.66000000946224,j,j,test,1.0,,
,p5feedback,160,299486,0.0-5.0-1.77,5f004f090329ec14b5f49015,5cb861ee40e6bf001517b0f5,5f005cc5304f7316c39b7e77,False,0.61,,,,,,,,
,p5card,161,302395,0.0-5.0-0.78,5f004f090329ec14b5f49015,5cb861ee40e6bf001517b0f5,5f005cc5304f7316c39b7e77,False,0.61,1.0,789.1900001559407,j,j,test,1.0,,
,p5feedback,162,302818,0.0-5.0-1.78,5f004f090329ec14b5f49015,5cb861ee40e6bf001517b0f5,5f005cc5304f7316c39b7e77,False,0.61,,,,,,,,
,p5card,163,305412,0.0-5.0-0.79,5f004f090329ec14b5f49015,5cb861ee40e6bf001517b0f5,5f005cc5304f7316c39b7e77,False,0.61,0.0,441.0050001461059,f,f,test,1.0,,
,p5feedback,164,305805,0.0-5.0-1.79,5f004f090329ec14b5f49015,5cb861ee40e6bf001517b0f5,5f005cc5304f7316c39b7e77,False,0.61,,,,,,,,
,p5card,165,308578,0.0-5.0-0.80,5f004f090329ec14b5f49015,5cb861ee40e6bf001517b0f5,5f005cc5304f7316c39b7e77,False,0.61,0.0,646.0849998984486,f,f,test,1.0,,
,p5feedback,166,308993,0.0-5.0-1.80,5f004f090329ec14b5f49015,5cb861ee40e6bf001517b0f5,5f005cc5304f7316c39b7e77,False,0.61,,,,,,,,
,p5card,167,311595,0.0-5.0-0.81,5f004f090329ec14b5f49015,5cb861ee40e6bf001517b0f5,5f005cc5304f7316c39b7e77,False,0.61,1.0,490.98500004038215,j,j,test,1.0,,
,p5feedback,168,311720,0.0-5.0-1.81,5f004f090329ec14b5f49015,5cb861ee40e6bf001517b0f5,5f005cc5304f7316c39b7e77,False,0.61,,,,,,,,
,p5card,169,314294,0.0-5.0-0.82,5f004f090329ec14b5f49015,5cb861ee40e6bf001517b0f5,5f005cc5304f7316c39b7e77,False,0.61,0.0,452.44499994441867,j,f,test,0.0,,
,p5feedback,170,314785,0.0-5.0-1.82,5f004f090329ec14b5f49015,5cb861ee40e6bf001517b0f5,5f005cc5304f7316c39b7e77,False,0.61,,,,,,,,
,p5card,171,317394,0.0-5.0-0.83,5f004f090329ec14b5f49015,5cb861ee40e6bf001517b0f5,5f005cc5304f7316c39b7e77,False,0.61,1.0,496.2449998129159,j,j,test,1.0,,
,p5feedback,172,317557,0.0-5.0-1.83,5f004f090329ec14b5f49015,5cb861ee40e6bf001517b0f5,5f005cc5304f7316c39b7e77,False,0.61,,,,,,,,
,p5card,173,320343,0.0-5.0-0.84,5f004f090329ec14b5f49015,5cb861ee40e6bf001517b0f5,5f005cc5304f7316c39b7e77,False,0.61,0.0,663.0100000184029,j,f,test,0.0,,
,p5feedback,174,320734,0.0-5.0-1.84,5f004f090329ec14b5f49015,5cb861ee40e6bf001517b0f5,5f005cc5304f7316c39b7e77,False,0.61,,,,,,,,
,p5card,175,323260,0.0-5.0-0.85,5f004f090329ec14b5f49015,5cb861ee40e6bf001517b0f5,5f005cc5304f7316c39b7e77,False,0.61,1.0,378.24500002898276,j,j,test,1.0,,
,p5feedback,176,323666,0.0-5.0-1.85,5f004f090329ec14b5f49015,5cb861ee40e6bf001517b0f5,5f005cc5304f7316c39b7e77,False,0.61,,,,,,,,
,p5card,177,326343,0.0-5.0-0.86,5f004f090329ec14b5f49015,5cb861ee40e6bf001517b0f5,5f005cc5304f7316c39b7e77,False,0.61,0.0,548.200000077486,f,f,test,1.0,,
,p5feedback,178,328392,0.0-5.0-1.86,5f004f090329ec14b5f49015,5cb861ee40e6bf001517b0f5,5f005cc5304f7316c39b7e77,False,0.61,,,,,,,,
,p5card,179,331109,0.0-5.0-0.87,5f004f090329ec14b5f49015,5cb861ee40e6bf001517b0f5,5f005cc5304f7316c39b7e77,False,0.61,1.0,604.9450000282377,f,j,test,0.0,,
,p5feedback,180,331402,0.0-5.0-1.87,5f004f090329ec14b5f49015,5cb861ee40e6bf001517b0f5,5f005cc5304f7316c39b7e77,False,0.61,,,,,,,,
,p5card,181,334242,0.0-5.0-0.88,5f004f090329ec14b5f49015,5cb861ee40e6bf001517b0f5,5f005cc5304f7316c39b7e77,False,0.61,0.0,720.875000115484,j,f,test,0.0,,
,p5feedback,182,334598,0.0-5.0-1.88,5f004f090329ec14b5f49015,5cb861ee40e6bf001517b0f5,5f005cc5304f7316c39b7e77,False,0.61,,,,,,,,
,p5card,183,337909,0.0-5.0-0.89,5f004f090329ec14b5f49015,5cb861ee40e6bf001517b0f5,5f005cc5304f7316c39b7e77,False,0.61,1.0,1190.3800000436604,j,j,test,1.0,,
,p5feedback,184,342165,0.0-5.0-1.89,5f004f090329ec14b5f49015,5cb861ee40e6bf001517b0f5,5f005cc5304f7316c39b7e77,False,0.61,,,,,,,,
,survey-text,185,361203,0.0-6.0,5f004f090329ec14b5f49015,5cb861ee40e6bf001517b0f5,5f005cc5304f7316c39b7e77,False,0.61,,,,,,,19025.59500001371,"{""best_guess"":"" The ones with the picture at the top""}"
,survey-text,186,366311,0.0-7.0,5f004f090329ec14b5f49015,5cb861ee40e6bf001517b0f5,5f005cc5304f7316c39b7e77,False,0.61,,,,,,,5100.444999989122,"{""worker_comments"":""""}"
,p5Text,187,378078,0.0-8.0,5f004f090329ec14b5f49015,5cb861ee40e6bf001517b0f5,5f005cc5304f7316c39b7e77,False,0.61,,,,,,,,
1.0,fullscreen,0,5634,0.0-0.0,5f004f090329ec14b5f49015,5cb749fda6fe0700189768a5,5f005cd903078115d9f6b17b,True,0.51,,,,,,,,
,p5Text,1,17456,0.0-1.0,5f004f090329ec14b5f49015,5cb749fda6fe0700189768a5,5f005cd903078115d9f6b17b,True,0.51,,,,,,,,
,p5Text,2,26987,0.0-2.0,5f004f090329ec14b5f49015,5cb749fda6fe0700189768a5,5f005cd903078115d9f6b17b,True,0.51,,,,,,,,
,p5Text,3,48051,0.0-3.0,5f004f090329ec14b5f49015,5cb749fda6fe0700189768a5,5f005cd903078115d9f6b17b,True,0.51,,,,,,,,
,p5Text,4,59713,0.0-4.0,5f004f090329ec14b5f49015,5cb749fda6fe0700189768a5,5f005cd903078115d9f6b17b,True,0.51,,,,,,,,
,p5card,5,65013,0.0-5.0-0.0,5f004f090329ec14b5f49015,5cb749fda6fe0700189768a5,5f005cd903078115d9f6b17b,True,0.51,1.0,3206.419999944046,j,j,test,1.0,,
,p5feedback,6,66886,0.0-5.0-1.0,5f004f090329ec14b5f49015,5cb749fda6fe0700189768a5,5f005cd903078115d9f6b17b,True,0.51,,,,,,,,
,p5card,7,70580,0.0-5.0-0.1,5f004f090329ec14b5f49015,5cb749fda6fe0700189768a5,5f005cd903078115d9f6b17b,True,0.51,0.0,1627.7599999448285,f,f,test,1.0,,
,p5feedback,8,74874,0.0-5.0-1.1,5f004f090329ec14b5f49015,5cb749fda6fe0700189768a5,5f005cd903078115d9f6b17b,True,0.51,,,,,,,,
,p5card,9,79631,0.0-5.0-0.2,5f004f090329ec14b5f49015,5cb749fda6fe0700189768a5,5f005cd903078115d9f6b17b,True,0.51,0.0,2688.075000070967,j,f,test,0.0,,
,p5feedback,10,82129,0.0-5.0-1.2,5f004f090329ec14b5f49015,5cb749fda6fe0700189768a5,5f005cd903078115d9f6b17b,True,0.51,,,,,,,,
,p5card,11,87448,0.0-5.0-0.3,5f004f090329ec14b5f49015,5cb749fda6fe0700189768a5,5f005cd903078115d9f6b17b,True,0.51,1.0,3221.4449999155477,f,j,test,0.0,,
,p5feedback,12,91880,0.0-5.0-1.3,5f004f090329ec14b5f49015,5cb749fda6fe0700189768a5,5f005cd903078115d9f6b17b,True,0.51,,,,,,,,
,p5card,13,95983,0.0-5.0-0.4,5f004f090329ec14b5f49015,5cb749fda6fe0700189768a5,5f005cd903078115d9f6b17b,True,0.51,1.0,2025.6999999983236,f,j,test,0.0,,
,p5feedback,14,97533,0.0-5.0-1.4,5f004f090329ec14b5f49015,5cb749fda6fe0700189768a5,5f005cd903078115d9f6b17b,True,0.51,,,,,,,,
,p5card,15,101534,0.0-5.0-0.5,5f004f090329ec14b5f49015,5cb749fda6fe0700189768a5,5f005cd903078115d9f6b17b,True,0.51,0.0,1919.965000008233,j,f,test,0.0,,
,p5feedback,16,102941,0.0-5.0-1.5,5f004f090329ec14b5f49015,5cb749fda6fe0700189768a5,5f005cd903078115d9f6b17b,True,0.51,,,,,,,,
,p5card,17,107218,0.0-5.0-0.6,5f004f090329ec14b5f49015,5cb749fda6fe0700189768a5,5f005cd903078115d9f6b17b,True,0.51,0.0,2194.3250000476837,j,f,test,0.0,,
,p5feedback,18,109386,0.0-5.0-1.6,5f004f090329ec14b5f49015,5cb749fda6fe0700189768a5,5f005cd903078115d9f6b17b,True,0.51,,,,,,,,
,p5card,19,113252,0.0-5.0-0.7,5f004f090329ec14b5f49015,5cb749fda6fe0700189768a5,5f005cd903078115d9f6b17b,True,0.51,1.0,1751.1350000277162,f,j,test,0.0,,
,p5feedback,20,114259,0.0-5.0-1.7,5f004f090329ec14b5f49015,5cb749fda6fe0700189768a5,5f005cd903078115d9f6b17b,True,0.51,,,,,,,,
,p5card,21,121286,0.0-5.0-0.8,5f004f090329ec14b5f49015,5cb749fda6fe0700189768a5,5f005cd903078115d9f6b17b,True,0.51,1.0,4940.6650000019,f,j,test,0.0,,
,p5feedback,22,124531,0.0-5.0-1.8,5f004f090329ec14b5f49015,5cb749fda6fe0700189768a5,5f005cd903078115d9f6b17b,True,0.51,,,,,,,,
,p5card,23,128803,0.0-5.0-0.9,5f004f090329ec14b5f49015,5cb749fda6fe0700189768a5,5f005cd903078115d9f6b17b,True,0.51,0.0,2132.240000064485,j,f,test,0.0,,
,p5feedback,24,130350,0.0-5.0-1.9,5f004f090329ec14b5f49015,5cb749fda6fe0700189768a5,5f005cd903078115d9f6b17b,True,0.51,,,,,,,,
,p5card,25,133670,0.0-5.0-0.10,5f004f090329ec14b5f49015,5cb749fda6fe0700189768a5,5f005cd903078115d9f6b17b,True,0.51,0.0,1206.7850000457838,j,f,test,0.0,,
,p5feedback,26,134892,0.0-5.0-1.10,5f004f090329ec14b5f49015,5cb749fda6fe0700189768a5,5f005cd903078115d9f6b17b,True,0.51,,,,,,,,
,p5card,27,140054,0.0-5.0-0.11,5f004f090329ec14b5f49015,5cb749fda6fe0700189768a5,5f005cd903078115d9f6b17b,True,0.51,1.0,3080.4699999280274,j,j,test,1.0,,
,p5feedback,28,141116,0.0-5.0-1.11,5f004f090329ec14b5f49015,5cb749fda6fe0700189768a5,5f005cd903078115d9f6b17b,True,0.51,,,,,,,,
,p5card,29,145343,0.0-5.0-0.12,5f004f090329ec14b5f49015,5cb749fda6fe0700189768a5,5f005cd903078115d9f6b17b,True,0.51,0.0,2139.5400000037625,f,f,test,1.0,,
,p5feedback,30,148645,0.0-5.0-1.12,5f004f090329ec14b5f49015,5cb749fda6fe0700189768a5,5f005cd903078115d9f6b17b,True,0.51,,,,,,,,
,p5card,31,154340,0.0-5.0-0.13,5f004f090329ec14b5f49015,5cb749fda6fe0700189768a5,5f005cd903078115d9f6b17b,True,0.51,1.0,3620.890000020154,j,j,test,1.0,,
,p5feedback,32,155732,0.0-5.0-1.13,5f004f090329ec14b5f49015,5cb749fda6fe0700189768a5,5f005cd903078115d9f6b17b,True,0.51,,,,,,,,
,p5card,33,160157,0.0-5.0-0.14,5f004f090329ec14b5f49015,5cb749fda6fe0700189768a5,5f005cd903078115d9f6b17b,True,0.51,0.0,2343.955000047572,j,f,test,0.0,,
,p5feedback,34,161245,0.0-5.0-1.14,5f004f090329ec14b5f49015,5cb749fda6fe0700189768a5,5f005cd903078115d9f6b17b,True,0.51,,,,,,,,
,p5card,35,168008,0.0-5.0-0.15,5f004f090329ec14b5f49015,5cb749fda6fe0700189768a5,5f005cd903078115d9f6b17b,True,0.51,1.0,4679.744999972172,j,j,test,1.0,,
,p5feedback,36,168867,0.0-5.0-1.15,5f004f090329ec14b5f49015,5cb749fda6fe0700189768a5,5f005cd903078115d9f6b17b,True,0.51,,,,,,,,
,p5card,37,174525,0.0-5.0-0.16,5f004f090329ec14b5f49015,5cb749fda6fe0700189768a5,5f005cd903078115d9f6b17b,True,0.51,1.0,3508.335000020452,j,j,test,1.0,,
,p5feedback,38,176489,0.0-5.0-1.16,5f004f090329ec14b5f49015,5cb749fda6fe0700189768a5,5f005cd903078115d9f6b17b,True,0.51,,,,,,,,
,p5card,39,180359,0.0-5.0-0.17,5f004f090329ec14b5f49015,5cb749fda6fe0700189768a5,5f005cd903078115d9f6b17b,True,0.51,0.0,1797.4900000263005,f,f,test,1.0,,
,p5feedback,40,180402,0.0-5.0-1.17,5f004f090329ec14b5f49015,5cb749fda6fe0700189768a5,5f005cd903078115d9f6b17b,True,0.51,,,,,,,,
,p5card,41,184259,0.0-5.0-0.18,5f004f090329ec14b5f49015,5cb749fda6fe0700189768a5,5f005cd903078115d9f6b17b,True,0.51,0.0,1788.6949999956414,f,f,test,1.0,,
,p5feedback,42,186018,0.0-5.0-1.18,5f004f090329ec14b5f49015,5cb749fda6fe0700189768a5,5f005cd903078115d9f6b17b,True,0.51,,,,,,,,
,p5card,43,192127,0.0-5.0-0.19,5f004f090329ec14b5f49015,5cb749fda6fe0700189768a5,5f005cd903078115d9f6b17b,True,0.51,1.0,4023.6649999860674,j,j,test,1.0,,
,p5feedback,44,193171,0.0-5.0-1.19,5f004f090329ec14b5f49015,5cb749fda6fe0700189768a5,5f005cd903078115d9f6b17b,True,0.51,,,,,,,,
,p5card,45,196794,0.0-5.0-0.20,5f004f090329ec14b5f49015,5cb749fda6fe0700189768a5,5f005cd903078115d9f6b17b,True,0.51,0.0,1543.16999996081,f,f,test,1.0,,
,p5feedback,46,197986,0.0-5.0-1.20,5f004f090329ec14b5f49015,5cb749fda6fe0700189768a5,5f005cd903078115d9f6b17b,True,0.51,,,,,,,,
,p5card,47,202444,0.0-5.0-0.21,5f004f090329ec14b5f49015,5cb749fda6fe0700189768a5,5f005cd903078115d9f6b17b,True,0.51,1.0,2369.704999960959,j,j,test,1.0,,
,p5feedback,48,203641,0.0-5.0-1.21,5f004f090329ec14b5f49015,5cb749fda6fe0700189768a5,5f005cd903078115d9f6b17b,True,0.51,,,,,,,,
,p5card,49,208063,0.0-5.0-0.22,5f004f090329ec14b5f49015,5cb749fda6fe0700189768a5,5f005cd903078115d9f6b17b,True,0.51,1.0,2339.240000001155,f,j,test,0.0,,
,p5feedback,50,208986,0.0-5.0-1.22,5f004f090329ec14b5f49015,5cb749fda6fe0700189768a5,5f005cd903078115d9f6b17b,True,0.51,,,,,,,,
,p5card,51,213795,0.0-5.0-0.23,5f004f090329ec14b5f49015,5cb749fda6fe0700189768a5,5f005cd903078115d9f6b17b,True,0.51,0.0,2736.170000047423,f,f,test,1.0,,
,p5feedback,52,214824,0.0-5.0-1.23,5f004f090329ec14b5f49015,5cb749fda6fe0700189768a5,5f005cd903078115d9f6b17b,True,0.51,,,,,,,,
,p5card,53,220279,0.0-5.0-0.24,5f004f090329ec14b5f49015,5cb749fda6fe0700189768a5,5f005cd903078115d9f6b17b,True,0.51,1.0,3339.945000014268,j,j,test,1.0,,
,p5feedback,54,222760,0.0-5.0-1.24,5f004f090329ec14b5f49015,5cb749fda6fe0700189768a5,5f005cd903078115d9f6b17b,True,0.51,,,,,,,,
,p5card,55,228413,0.0-5.0-0.25,5f004f090329ec14b5f49015,5cb749fda6fe0700189768a5,5f005cd903078115d9f6b17b,True,0.51,0.0,3569.2549999803305,f,f,test,1.0,,
,p5feedback,56,229311,0.0-5.0-1.25,5f004f090329ec14b5f49015,5cb749fda6fe0700189768a5,5f005cd903078115d9f6b17b,True,0.51,,,,,,,,
,p5card,57,234746,0.0-5.0-0.26,5f004f090329ec14b5f49015,5cb749fda6fe0700189768a5,5f005cd903078115d9f6b17b,True,0.51,1.0,3351.5299999853596,f,j,test,0.0,,
,p5feedback,58,234826,0.0-5.0-1.26,5f004f090329ec14b5f49015,5cb749fda6fe0700189768a5,5f005cd903078115d9f6b17b,True,0.51,,,,,,,,
,p5card,59,240314,0.0-5.0-0.27,5f004f090329ec14b5f49015,5cb749fda6fe0700189768a5,5f005cd903078115d9f6b17b,True,0.51,0.0,3413.5850000893697,j,f,test,0.0,,
,p5feedback,60,241560,0.0-5.0-1.27,5f004f090329ec14b5f49015,5cb749fda6fe0700189768a5,5f005cd903078115d9f6b17b,True,0.51,,,,,,,,
,p5card,61,245281,0.0-5.0-0.28,5f004f090329ec14b5f49015,5cb749fda6fe0700189768a5,5f005cd903078115d9f6b17b,True,0.51,0.0,1650.054999976419,j,f,test,0.0,,
,p5feedback,62,248020,0.0-5.0-1.28,5f004f090329ec14b5f49015,5cb749fda6fe0700189768a5,5f005cd903078115d9f6b17b,True,0.51,,,,,,,,
,p5card,63,253282,0.0-5.0-0.29,5f004f090329ec14b5f49015,5cb749fda6fe0700189768a5,5f005cd903078115d9f6b17b,True,0.51,1.0,3183.9250000193715,f,j,test,0.0,,
,p5feedback,64,254788,0.0-5.0-1.29,5f004f090329ec14b5f49015,5cb749fda6fe0700189768a5,5f005cd903078115d9f6b17b,True,0.51,,,,,,,,
,p5card,65,258882,0.0-5.0-0.30,5f004f090329ec14b5f49015,5cb749fda6fe0700189768a5,5f005cd903078115d9f6b17b,True,0.51,1.0,2010.9099999535829,f,j,test,0.0,,
,p5feedback,66,260359,0.0-5.0-1.30,5f004f090329ec14b5f49015,5cb749fda6fe0700189768a5,5f005cd903078115d9f6b17b,True,0.51,,,,,,,,
,p5card,67,264799,0.0-5.0-0.31,5f004f090329ec14b5f49015,5cb749fda6fe0700189768a5,5f005cd903078115d9f6b17b,True,0.51,0.0,2338.5400000261143,j,f,test,0.0,,
,p5feedback,68,266311,0.0-5.0-1.31,5f004f090329ec14b5f49015,5cb749fda6fe0700189768a5,5f005cd903078115d9f6b17b,True,0.51,,,,,,,,
,p5card,69,272401,0.0-5.0-0.32,5f004f090329ec14b5f49015,5cb749fda6fe0700189768a5,5f005cd903078115d9f6b17b,True,0.51,0.0,4013.675000052899,j,f,test,0.0,,
,p5feedback,70,273584,0.0-5.0-1.32,5f004f090329ec14b5f49015,5cb749fda6fe0700189768a5,5f005cd903078115d9f6b17b,True,0.51,,,,,,,,
,p5card,71,276721,0.0-5.0-0.33,5f004f090329ec14b5f49015,5cb749fda6fe0700189768a5,5f005cd903078115d9f6b17b,True,0.51,1.0,1059.7550000529736,j,j,test,1.0,,
,p5feedback,72,277915,0.0-5.0-1.33,5f004f090329ec14b5f49015,5cb749fda6fe0700189768a5,5f005cd903078115d9f6b17b,True,0.51,,,,,,,,
,p5card,73,281668,0.0-5.0-0.34,5f004f090329ec14b5f49015,5cb749fda6fe0700189768a5,5f005cd903078115d9f6b17b,True,0.51,0.0,1669.6800000499934,j,f,test,0.0,,
,p5feedback,74,284540,0.0-5.0-1.34,5f004f090329ec14b5f49015,5cb749fda6fe0700189768a5,5f005cd903078115d9f6b17b,True,0.51,,,,,,,,
,p5card,75,287303,0.0-5.0-0.35,5f004f090329ec14b5f49015,5cb749fda6fe0700189768a5,5f005cd903078115d9f6b17b,True,0.51,1.0,672.2699999809265,f,j,test,0.0,,
,p5feedback,76,288247,0.0-5.0-1.35,5f004f090329ec14b5f49015,5cb749fda6fe0700189768a5,5f005cd903078115d9f6b17b,True,0.51,,,,,,,,
,p5card,77,293320,0.0-5.0-0.36,5f004f090329ec14b5f49015,5cb749fda6fe0700189768a5,5f005cd903078115d9f6b17b,True,0.51,1.0,,,j,test,,,
,p5feedback,78,295048,0.0-5.0-1.36,5f004f090329ec14b5f49015,5cb749fda6fe0700189768a5,5f005cd903078115d9f6b17b,True,0.51,,,,,,,,
,p5card,79,298955,0.0-5.0-0.37,5f004f090329ec14b5f49015,5cb749fda6fe0700189768a5,5f005cd903078115d9f6b17b,True,0.51,0.0,1837.0399998966604,f,f,test,1.0,,
,p5feedback,80,299750,0.0-5.0-1.37,5f004f090329ec14b5f49015,5cb749fda6fe0700189768a5,5f005cd903078115d9f6b17b,True,0.51,,,,,,,,
,p5card,81,302803,0.0-5.0-0.38,5f004f090329ec14b5f49015,5cb749fda6fe0700189768a5,5f005cd903078115d9f6b17b,True,0.51,0.0,968.5599999502301,f,f,test,1.0,,
,p5feedback,82,304475,0.0-5.0-1.38,5f004f090329ec14b5f49015,5cb749fda6fe0700189768a5,5f005cd903078115d9f6b17b,True,0.51,,,,,,,,
,p5card,83,307987,0.0-5.0-0.39,5f004f090329ec14b5f49015,5cb749fda6fe0700189768a5,5f005cd903078115d9f6b17b,True,0.51,1.0,1426.48000002373,j,j,test,1.0,,
,p5feedback,84,309026,0.0-5.0-1.39,5f004f090329ec14b5f49015,5cb749fda6fe0700189768a5,5f005cd903078115d9f6b17b,True,0.51,,,,,,,,
,p5card,85,311971,0.0-5.0-0.40,5f004f090329ec14b5f49015,5cb749fda6fe0700189768a5,5f005cd903078115d9f6b17b,True,0.51,0.0,865.019999910146,j,f,test,0.0,,
,p5feedback,86,313226,0.0-5.0-1.40,5f004f090329ec14b5f49015,5cb749fda6fe0700189768a5,5f005cd903078115d9f6b17b,True,0.51,,,,,,,,
,p5card,87,320188,0.0-5.0-0.41,5f004f090329ec14b5f49015,5cb749fda6fe0700189768a5,5f005cd903078115d9f6b17b,True,0.51,1.0,4887.334999977611,f,j,test,0.0,,
,p5feedback,88,320227,0.0-5.0-1.41,5f004f090329ec14b5f49015,5cb749fda6fe0700189768a5,5f005cd903078115d9f6b17b,True,0.51,,,,,,,,
,p5card,89,325306,0.0-5.0-0.42,5f004f090329ec14b5f49015,5cb749fda6fe0700189768a5,5f005cd903078115d9f6b17b,True,0.51,1.0,3000.8099999977276,j,j,test,1.0,,
,p5feedback,90,326118,0.0-5.0-1.42,5f004f090329ec14b5f49015,5cb749fda6fe0700189768a5,5f005cd903078115d9f6b17b,True,0.51,,,,,,,,
,p5card,91,330907,0.0-5.0-0.43,5f004f090329ec14b5f49015,5cb749fda6fe0700189768a5,5f005cd903078115d9f6b17b,True,0.51,0.0,2707.5450000120327,f,f,test,1.0,,
,p5feedback,92,332066,0.0-5.0-1.43,5f004f090329ec14b5f49015,5cb749fda6fe0700189768a5,5f005cd903078115d9f6b17b,True,0.51,,,,,,,,
,p5card,93,338224,0.0-5.0-0.44,5f004f090329ec14b5f49015,5cb749fda6fe0700189768a5,5f005cd903078115d9f6b17b,True,0.51,0.0,4076.8599999137223,j,f,test,0.0,,
,p5feedback,94,339336,0.0-5.0-1.44,5f004f090329ec14b5f49015,5cb749fda6fe0700189768a5,5f005cd903078115d9f6b17b,True,0.51,,,,,,,,
,p5card,95,344092,0.0-5.0-0.45,5f004f090329ec14b5f49015,5cb749fda6fe0700189768a5,5f005cd903078115d9f6b17b,True,0.51,1.0,2676.590000046417,f,j,test,0.0,,
,p5feedback,96,345184,0.0-5.0-1.45,5f004f090329ec14b5f49015,5cb749fda6fe0700189768a5,5f005cd903078115d9f6b17b,True,0.51,,,,,,,,
,p5card,97,351342,0.0-5.0-0.46,5f004f090329ec14b5f49015,5cb749fda6fe0700189768a5,5f005cd903078115d9f6b17b,True,0.51,0.0,4076.75999996718,j,f,test,0.0,,
,p5feedback,98,352904,0.0-5.0-1.46,5f004f090329ec14b5f49015,5cb749fda6fe0700189768a5,5f005cd903078115d9f6b17b,True,0.51,,,,,,,,
,p5card,99,355960,0.0-5.0-0.47,5f004f090329ec14b5f49015,5cb749fda6fe0700189768a5,5f005cd903078115d9f6b17b,True,0.51,1.0,969.2049999721348,j,j,test,1.0,,
,p5feedback,100,356774,0.0-5.0-1.47,5f004f090329ec14b5f49015,5cb749fda6fe0700189768a5,5f005cd903078115d9f6b17b,True,0.51,,,,,,,,
,p5card,101,360444,0.0-5.0-0.48,5f004f090329ec14b5f49015,5cb749fda6fe0700189768a5,5f005cd903078115d9f6b17b,True,0.51,1.0,1592.0049999840558,f,j,test,0.0,,
,p5feedback,102,361441,0.0-5.0-1.48,5f004f090329ec14b5f49015,5cb749fda6fe0700189768a5,5f005cd903078115d9f6b17b,True,0.51,,,,,,,,
,p5card,103,365344,0.0-5.0-0.49,5f004f090329ec14b5f49015,5cb749fda6fe0700189768a5,5f005cd903078115d9f6b17b,True,0.51,0.0,1823.1399999931455,j,f,test,0.0,,
,p5feedback,104,366790,0.0-5.0-1.49,5f004f090329ec14b5f49015,5cb749fda6fe0700189768a5,5f005cd903078115d9f6b17b,True,0.51,,,,,,,,
,p5card,105,371011,0.0-5.0-0.50,5f004f090329ec14b5f49015,5cb749fda6fe0700189768a5,5f005cd903078115d9f6b17b,True,0.51,1.0,2138.9300000155345,j,j,test,1.0,,
,p5feedback,106,372997,0.0-5.0-1.50,5f004f090329ec14b5f49015,5cb749fda6fe0700189768a5,5f005cd903078115d9f6b17b,True,0.51,,,,,,,,
,p5card,107,378245,0.0-5.0-0.51,5f004f090329ec14b5f49015,5cb749fda6fe0700189768a5,5f005cd903078115d9f6b17b,True,0.51,0.0,3136.6500000003725,f,f,test,1.0,,
,p5feedback,108,379751,0.0-5.0-1.51,5f004f090329ec14b5f49015,5cb749fda6fe0700189768a5,5f005cd903078115d9f6b17b,True,0.51,,,,,,,,
,p5card,109,384595,0.0-5.0-0.52,5f004f090329ec14b5f49015,5cb749fda6fe0700189768a5,5f005cd903078115d9f6b17b,True,0.51,0.0,2772.400000016205,j,f,test,0.0,,
,p5feedback,110,385919,0.0-5.0-1.52,5f004f090329ec14b5f49015,5cb749fda6fe0700189768a5,5f005cd903078115d9f6b17b,True,0.51,,,,,,,,
,p5card,111,389312,0.0-5.0-0.53,5f004f090329ec14b5f49015,5cb749fda6fe0700189768a5,5f005cd903078115d9f6b17b,True,0.51,1.0,1314.49000001885,j,j,test,1.0,,
,p5feedback,112,390479,0.0-5.0-1.53,5f004f090329ec14b5f49015,5cb749fda6fe0700189768a5,5f005cd903078115d9f6b17b,True,0.51,,,,,,,,
,p5card,113,395864,0.0-5.0-0.54,5f004f090329ec14b5f49015,5cb749fda6fe0700189768a5,5f005cd903078115d9f6b17b,True,0.51,1.0,3298.7949999514967,j,j,test,1.0,,
,p5feedback,114,396877,0.0-5.0-1.54,5f004f090329ec14b5f49015,5cb749fda6fe0700189768a5,5f005cd903078115d9f6b17b,True,0.51,,,,,,,,
,p5card,115,401897,0.0-5.0-0.55,5f004f090329ec14b5f49015,5cb749fda6fe0700189768a5,5f005cd903078115d9f6b17b,True,0.51,0.0,2929.4150000205263,j,f,test,0.0,,
,p5feedback,116,404679,0.0-5.0-1.55,5f004f090329ec14b5f49015,5cb749fda6fe0700189768a5,5f005cd903078115d9f6b17b,True,0.51,,,,,,,,
,p5card,117,409914,0.0-5.0-0.56,5f004f090329ec14b5f49015,5cb749fda6fe0700189768a5,5f005cd903078115d9f6b17b,True,0.51,1.0,3160.024999990128,j,j,test,1.0,,
,p5feedback,118,411191,0.0-5.0-1.56,5f004f090329ec14b5f49015,5cb749fda6fe0700189768a5,5f005cd903078115d9f6b17b,True,0.51,,,,,,,,
,p5card,119,415832,0.0-5.0-0.57,5f004f090329ec14b5f49015,5cb749fda6fe0700189768a5,5f005cd903078115d9f6b17b,True,0.51,0.0,2557.9450000077486,j,f,test,0.0,,
,p5feedback,120,417029,0.0-5.0-1.57,5f004f090329ec14b5f49015,5cb749fda6fe0700189768a5,5f005cd903078115d9f6b17b,True,0.51,,,,,,,,
,p5card,121,420932,0.0-5.0-0.58,5f004f090329ec14b5f49015,5cb749fda6fe0700189768a5,5f005cd903078115d9f6b17b,True,0.51,1.0,1817.1299999812618,j,j,test,1.0,,
,p5feedback,122,421911,0.0-5.0-1.58,5f004f090329ec14b5f49015,5cb749fda6fe0700189768a5,5f005cd903078115d9f6b17b,True,0.51,,,,,,,,
,p5card,123,426166,0.0-5.0-0.59,5f004f090329ec14b5f49015,5cb749fda6fe0700189768a5,5f005cd903078115d9f6b17b,True,0.51,0.0,2109.6200000029057,j,f,test,0.0,,
,p5feedback,124,427201,0.0-5.0-1.59,5f004f090329ec14b5f49015,5cb749fda6fe0700189768a5,5f005cd903078115d9f6b17b,True,0.51,,,,,,,,
,p5card,125,430483,0.0-5.0-0.60,5f004f090329ec14b5f49015,5cb749fda6fe0700189768a5,5f005cd903078115d9f6b17b,True,0.51,1.0,1183.989999932237,j,j,test,1.0,,
,p5feedback,126,432542,0.0-5.0-1.60,5f004f090329ec14b5f49015,5cb749fda6fe0700189768a5,5f005cd903078115d9f6b17b,True,0.51,,,,,,,,
,p5card,127,438617,0.0-5.0-0.61,5f004f090329ec14b5f49015,5cb749fda6fe0700189768a5,5f005cd903078115d9f6b17b,True,0.51,0.0,3953.8900000043213,f,f,test,1.0,,
,p5feedback,128,439892,0.0-5.0-1.61,5f004f090329ec14b5f49015,5cb749fda6fe0700189768a5,5f005cd903078115d9f6b17b,True,0.51,,,,,,,,
,p5card,129,446284,0.0-5.0-0.62,5f004f090329ec14b5f49015,5cb749fda6fe0700189768a5,5f005cd903078115d9f6b17b,True,0.51,1.0,4285.450000083074,j,j,test,1.0,,
,p5feedback,130,448365,0.0-5.0-1.62,5f004f090329ec14b5f49015,5cb749fda6fe0700189768a5,5f005cd903078115d9f6b17b,True,0.51,,,,,,,,
,p5card,131,451452,0.0-5.0-0.63,5f004f090329ec14b5f49015,5cb749fda6fe0700189768a5,5f005cd903078115d9f6b17b,True,0.51,0.0,1009.4950000056997,f,f,test,1.0,,
,p5feedback,132,452727,0.0-5.0-1.63,5f004f090329ec14b5f49015,5cb749fda6fe0700189768a5,5f005cd903078115d9f6b17b,True,0.51,,,,,,,,
,p5card,133,456403,0.0-5.0-0.64,5f004f090329ec14b5f49015,5cb749fda6fe0700189768a5,5f005cd903078115d9f6b17b,True,0.51,1.0,1568.5250000096858,j,j,test,1.0,,
,p5feedback,134,457950,0.0-5.0-1.64,5f004f090329ec14b5f49015,5cb749fda6fe0700189768a5,5f005cd903078115d9f6b17b,True,0.51,,,,,,,,
,p5card,135,461470,0.0-5.0-0.65,5f004f090329ec14b5f49015,5cb749fda6fe0700189768a5,5f005cd903078115d9f6b17b,True,0.51,0.0,1445.549999945797,f,f,test,1.0,,
,p5feedback,136,464615,0.0-5.0-1.65,5f004f090329ec14b5f49015,5cb749fda6fe0700189768a5,5f005cd903078115d9f6b17b,True,0.51,,,,,,,,
,p5card,137,471221,0.0-5.0-0.66,5f004f090329ec14b5f49015,5cb749fda6fe0700189768a5,5f005cd903078115d9f6b17b,True,0.51,0.0,4511.109999963082,f,f,test,1.0,,
,p5feedback,138,472735,0.0-5.0-1.66,5f004f090329ec14b5f49015,5cb749fda6fe0700189768a5,5f005cd903078115d9f6b17b,True,0.51,,,,,,,,
,p5card,139,476871,0.0-5.0-0.67,5f004f090329ec14b5f49015,5cb749fda6fe0700189768a5,5f005cd903078115d9f6b17b,True,0.51,1.0,2019.8300000047311,j,j,test,1.0,,
,p5feedback,140,478777,0.0-5.0-1.67,5f004f090329ec14b5f49015,5cb749fda6fe0700189768a5,5f005cd903078115d9f6b17b,True,0.51,,,,,,,,
,p5card,141,482422,0.0-5.0-0.68,5f004f090329ec14b5f49015,5cb749fda6fe0700189768a5,5f005cd903078115d9f6b17b,True,0.51,0.0,1574.6700000017881,j,f,test,0.0,,
,p5feedback,142,484179,0.0-5.0-1.68,5f004f090329ec14b5f49015,5cb749fda6fe0700189768a5,5f005cd903078115d9f6b17b,True,0.51,,,,,,,,
